
time;ax;ay;az;wx;wy;wz;
0.0200;1.1760;-0.9224;1.8947;-0.0174;-0.2094;0.8203;
0.0220;1.1760;-0.9224;1.8947;-0.0174;-0.2094;0.8203;
0.0230;1.1760;-0.9224;1.8947;0.0000;-0.1396;0.6283;
0.0240;0.3364;-0.6605;0.3611;0.0000;-0.1396;0.6283;
0.0860;0.3364;-0.6605;0.3611;0.0000;-0.1396;0.6283;
0.0880;0.3364;-0.6605;0.3611;0.0000;-0.1396;0.6283;
0.0890;0.3364;-0.6605;0.3611;0.0174;-0.1222;0.2094;
0.0890;-1.8566;-0.2652;0.9857;0.0174;-0.1222;0.2094;
0.1520;-1.8566;-0.2652;0.9857;0.0174;-0.1222;0.2094;
0.1540;-1.8566;-0.2652;0.9857;0.0174;-0.1222;0.2094;
0.1550;-1.8566;-0.2652;0.9857;0.0000;-0.1222;-0.1047;
0.1560;0.0072;-1.0610;1.9572;0.0000;-0.1222;-0.1047;
0.2200;0.0072;-1.0610;1.9572;0.0000;-0.1222;-0.1047;
0.2210;0.0072;-1.0610;1.9572;-0.0349;-0.0872;-0.2792;
0.2220;-0.1783;-1.4875;-0.6809;-0.0349;-0.0872;-0.2792;
0.2220;-0.1783;-1.4875;-0.6809;-0.0349;-0.0872;-0.2792;
0.2840;-0.1783;-1.4875;-0.6809;-0.0349;-0.0872;-0.2792;
0.2860;-0.1783;-1.4875;-0.6809;-0.0349;-0.0872;-0.2792;
0.2860;-0.1783;-1.4875;-0.6809;-0.0872;0.0524;-0.3316;
0.2870;-5.2452;1.1539;-6.8341;-0.0872;0.0524;-0.3316;
0.3500;-5.2452;1.1539;-6.8341;-0.0872;0.0524;-0.3316;
0.3520;-5.2452;1.1539;-6.8341;-0.0872;0.0524;-0.3316;
0.3530;-5.2452;1.1539;-6.8341;-0.0872;0.1745;-0.5585;
0.3530;-6.3775;2.3680;-3.0031;-0.0872;0.1745;-0.5585;
0.4160;-6.3775;2.3680;-3.0031;-0.0872;0.1745;-0.5585;
0.4180;-6.3775;2.3680;-3.0031;-0.0872;0.1745;-0.5585;
0.4190;-6.3775;2.3680;-3.0031;0.0000;0.2967;-1.1344;
0.4200;-8.7274;2.5387;-11.7679;0.0000;0.2967;-1.1344;
0.4820;-8.7274;2.5387;-11.7679;0.0000;0.2967;-1.1344;
0.4840;-8.7274;2.5387;-11.7679;0.0000;0.2967;-1.1344;
0.4850;-8.7274;2.5387;-11.7679;0.2618;0.5410;-1.8674;
0.4850;-4.9886;-0.4667;-3.3008;0.2618;0.5410;-1.8674;
0.5470;-4.9886;-0.4667;-3.3008;0.2618;0.5410;-1.8674;
0.5500;-4.9886;-0.4667;-3.3008;0.2618;0.5410;-1.8674;
0.5500;-4.9886;-0.4667;-3.3008;0.8552;1.3613;-2.1990;
0.5510;-6.7285;-0.4536;-4.4761;0.8552;1.3613;-2.1990;
0.6140;-6.7285;-0.4536;-4.4761;0.8552;1.3613;-2.1990;
0.6160;-6.7285;-0.4536;-4.4761;0.8552;1.3613;-2.1990;
0.6170;-6.7285;-0.4536;-4.4761;1.1693;2.1990;-1.8325;
0.6170;-5.1732;-0.9281;-4.3643;1.1693;2.1990;-1.8325;
0.6800;-5.1732;-0.9281;-4.3643;1.1693;2.1990;-1.8325;
0.6820;-5.1732;-0.9281;-4.3643;1.1693;2.1990;-1.8325;
0.6830;-5.1732;-0.9281;-4.3643;1.1344;2.8972;-1.0646;
0.6840;-5.7982;-1.1817;-2.9334;1.1344;2.8972;-1.0646;
0.7460;-5.7982;-1.1817;-2.9334;1.1344;2.8972;-1.0646;
0.7480;-5.7982;-1.1817;-2.9334;1.1344;2.8972;-1.0646;
0.7490;-5.7982;-1.1817;-2.9334;0.6283;3.0193;-0.3490;
0.7490;-4.2903;-1.7267;-1.5197;0.6283;3.0193;-0.3490;
0.8120;-4.2903;-1.7267;-1.5197;0.6283;3.0193;-0.3490;
0.8140;-4.2903;-1.7267;-1.5197;0.6283;3.0193;-0.3490;
0.8150;-4.2903;-1.7267;-1.5197;0.2618;2.4957;-0.2792;
0.8160;-1.8147;-2.3428;-1.4720;0.2618;2.4957;-0.2792;
0.8780;-1.8147;-2.3428;-1.4720;0.2618;2.4957;-0.2792;
0.8800;-1.8147;-2.3428;-1.4720;0.2618;2.4957;-0.2792;
0.8810;-1.8147;-2.3428;-1.4720;0.2443;1.6580;-0.4363;
0.8810;-1.7440;-2.2275;-0.7242;0.2443;1.6580;-0.4363;
0.9440;-1.7440;-2.2275;-0.7242;0.2443;1.6580;-0.4363;
0.9460;-1.7440;-2.2275;-0.7242;0.2443;1.6580;-0.4363;
0.9470;-1.7440;-2.2275;-0.7242;0.5236;0.8028;-0.6806;
0.9470;-3.6971;-1.6102;-1.2868;0.5236;0.8028;-0.6806;
1.0100;-3.6971;-1.6102;-1.2868;0.5236;0.8028;-0.6806;
1.0120;-3.6971;-1.6102;-1.2868;0.5236;0.8028;-0.6806;
1.0130;-3.6971;-1.6102;-1.2868;0.9948;-0.0698;-0.9599;
1.0140;-2.4415;-2.8277;-3.7333;0.9948;-0.0698;-0.9599;
1.0760;-2.4415;-2.8277;-3.7333;0.9948;-0.0698;-0.9599;
1.0780;-2.4415;-2.8277;-3.7333;0.9948;-0.0698;-0.9599;
1.0790;-2.4415;-2.8277;-3.7333;1.0646;-0.4538;-1.0297;
1.0790;0.4043;-2.5115;-1.5904;1.0646;-0.4538;-1.0297;
1.1420;0.4043;-2.5115;-1.5904;1.0646;-0.4538;-1.0297;
1.1440;0.4043;-2.5115;-1.5904;1.0646;-0.4538;-1.0297;
1.1450;0.4043;-2.5115;-1.5904;0.8203;-0.5061;-0.9948;
1.1460;0.6684;-2.1188;-0.2173;0.8203;-0.5061;-0.9948;
1.2080;0.6684;-2.1188;-0.2173;0.8203;-0.5061;-0.9948;
1.2100;0.6684;-2.1188;-0.2173;0.8203;-0.5061;-0.9948;
1.2110;0.6684;-2.1188;-0.2173;0.2269;-0.3316;-0.7679;
1.2110;-5.1555;-1.2685;-7.2757;0.2269;-0.3316;-0.7679;
1.2740;-5.1555;-1.2685;-7.2757;0.2269;-0.3316;-0.7679;
1.2760;-5.1555;-1.2685;-7.2757;0.2269;-0.3316;-0.7679;
1.2770;-5.1555;-1.2685;-7.2757;-0.0349;-0.1396;-0.6458;
1.2770;0.0267;-4.1378;-3.5765;-0.0349;-0.1396;-0.6458;
1.3400;0.0267;-4.1378;-3.5765;-0.0349;-0.1396;-0.6458;
1.3420;0.0267;-4.1378;-3.5765;-0.0349;-0.1396;-0.6458;
1.3430;0.0267;-4.1378;-3.5765;-0.1047;0.0000;-0.5934;
1.3430;-0.9675;-6.7959;-4.3226;-0.1047;0.0000;-0.5934;
1.4060;-0.9675;-6.7959;-4.3226;-0.1047;0.0000;-0.5934;
1.4080;-0.9675;-6.7959;-4.3226;-0.1047;0.0000;-0.5934;
1.4090;-0.9675;-6.7959;-4.3226;-0.1396;0.1920;-0.5410;
1.4090;1.1145;-3.8270;-6.0937;-0.1396;0.1920;-0.5410;
1.4720;1.1145;-3.8270;-6.0937;-0.1396;0.1920;-0.5410;
1.4740;1.1145;-3.8270;-6.0937;-0.1396;0.1920;-0.5410;
1.4750;1.1145;-3.8270;-6.0937;-0.4538;0.6108;-0.5236;
1.4760;2.6814;-3.8015;-5.2440;-0.4538;0.6108;-0.5236;
1.5740;2.6814;-3.8015;-5.2440;-0.4538;0.6108;-0.5236;
1.5740;2.6814;-3.8015;-5.2440;-0.8726;0.9773;-0.7854;
1.5750;3.2828;-11.0832;-0.7683;-0.8726;0.9773;-0.7854;
1.5750;3.2828;-11.0832;-0.7683;-0.8726;0.9773;-0.7854;
1.6040;3.2828;-11.0832;-0.7683;-0.8726;0.9773;-0.7854;
1.6060;3.2828;-11.0832;-0.7683;-0.8726;0.9773;-0.7854;
1.6070;3.2828;-11.0832;-0.7683;-0.8726;1.0123;-0.8901;
1.6080;1.5352;-9.3189;-7.8424;-0.8726;1.0123;-0.8901;
1.6700;1.5352;-9.3189;-7.8424;-0.8726;1.0123;-0.8901;
1.6720;1.5352;-9.3189;-7.8424;-0.8726;1.0123;-0.8901;
1.6730;1.5352;-9.3189;-7.8424;-0.7679;1.0297;-1.3962;
1.6730;8.9093;-6.0549;-2.2314;-0.7679;1.0297;-1.3962;
1.7360;8.9093;-6.0549;-2.2314;-0.7679;1.0297;-1.3962;
1.7380;8.9093;-6.0549;-2.2314;-0.7679;1.0297;-1.3962;
1.7390;8.9093;-6.0549;-2.2314;0.4363;0.8552;-1.2217;
1.7400;8.1779;-0.9684;0.1809;0.4363;0.8552;-1.2217;
1.8020;8.1779;-0.9684;0.1809;0.4363;0.8552;-1.2217;
1.8040;8.1779;-0.9684;0.1809;0.4363;0.8552;-1.2217;
1.8050;8.1779;-0.9684;0.1809;0.4014;0.6981;0.0349;
1.8060;6.1379;-11.4440;-2.7485;0.4014;0.6981;0.0349;
1.8680;6.1379;-11.4440;-2.7485;0.4014;0.6981;0.0349;
1.8700;6.1379;-11.4440;-2.7485;0.4014;0.6981;0.0349;
1.8710;6.1379;-11.4440;-2.7485;0.3141;0.7330;1.4137;
1.8720;6.5560;-4.4930;-2.5980;0.3141;0.7330;1.4137;
1.9350;6.5560;-4.4930;-2.5980;0.3141;0.7330;1.4137;
1.9370;6.5560;-4.4930;-2.5980;0.3141;0.7330;1.4137;
1.9370;6.5560;-4.4930;-2.5980;-0.6981;1.3613;2.7226;
1.9380;5.3219;-3.7054;-1.5078;-0.6981;1.3613;2.7226;
2.0080;5.3219;-3.7054;-1.5078;-0.6981;1.3613;2.7226;
2.0120;5.3219;-3.7054;-1.5078;-0.6981;1.3613;2.7226;
2.0130;5.3219;-3.7054;-1.5078;-0.5934;2.0943;2.5306;
2.0140;5.2493;-3.3596;-1.0423;-0.5934;2.0943;2.5306;
2.0660;5.2493;-3.3596;-1.0423;-0.5934;2.0943;2.5306;
2.0680;5.2493;-3.3596;-1.0423;-0.5934;2.0943;2.5306;
2.0690;5.2493;-3.3596;-1.0423;-0.3141;2.6179;2.0943;
2.0700;5.2150;-3.6954;-0.8985;-0.3141;2.6179;2.0943;
2.1320;5.2150;-3.6954;-0.8985;-0.3141;2.6179;2.0943;
2.1340;5.2150;-3.6954;-0.8985;-0.3141;2.6179;2.0943;
2.1350;5.2150;-3.6954;-0.8985;-0.0872;2.6528;1.5358;
2.1360;3.4330;-4.0867;-0.9535;-0.0872;2.6528;1.5358;
2.2020;3.4330;-4.0867;-0.9535;-0.0872;2.6528;1.5358;
2.2030;3.4330;-4.0867;-0.9535;0.0524;2.2689;1.0646;
2.2040;0.6573;-1.9154;-1.0828;0.0524;2.2689;1.0646;
2.2040;0.6573;-1.9154;-1.0828;0.0524;2.2689;1.0646;
2.2640;0.6573;-1.9154;-1.0828;0.0524;2.2689;1.0646;
2.2660;0.6573;-1.9154;-1.0828;0.0524;2.2689;1.0646;
2.2660;0.6573;-1.9154;-1.0828;0.1222;1.4486;0.5585;
2.2670;0.5657;-3.3710;-0.1944;0.1222;1.4486;0.5585;
2.3300;0.5657;-3.3710;-0.1944;0.1222;1.4486;0.5585;
2.3320;0.5657;-3.3710;-0.1944;0.1222;1.4486;0.5585;
2.3330;0.5657;-3.3710;-0.1944;0.0872;0.8377;0.2618;
2.3330;3.2159;-2.5650;1.4770;0.0872;0.8377;0.2618;
2.3960;3.2159;-2.5650;1.4770;0.0872;0.8377;0.2618;
2.3980;3.2159;-2.5650;1.4770;0.0872;0.8377;0.2618;
2.3990;3.2159;-2.5650;1.4770;0.0000;0.2618;-0.0349;
2.4000;7.2865;-3.8375;0.8660;0.0000;0.2618;-0.0349;
2.4620;7.2865;-3.8375;0.8660;0.0000;0.2618;-0.0349;
2.4640;7.2865;-3.8375;0.8660;0.0000;0.2618;-0.0349;
2.4650;7.2865;-3.8375;0.8660;-0.0349;-0.2094;-0.2967;
2.4660;4.6515;-0.4179;1.1944;-0.0349;-0.2094;-0.2967;
2.5280;4.6515;-0.4179;1.1944;-0.0349;-0.2094;-0.2967;
2.5300;4.6515;-0.4179;1.1944;-0.0349;-0.2094;-0.2967;
2.5310;4.6515;-0.4179;1.1944;0.0000;-0.3840;-0.3141;
2.5310;0.2620;0.5602;-2.0891;0.0000;-0.3840;-0.3141;
2.5940;0.2620;0.5602;-2.0891;0.0000;-0.3840;-0.3141;
2.5960;0.2620;0.5602;-2.0891;0.0000;-0.3840;-0.3141;
2.5970;0.2620;0.5602;-2.0891;0.0524;-0.2967;-0.0524;
2.5980;-0.8482;3.0237;-2.3398;0.0524;-0.2967;-0.0524;
2.6600;-0.8482;3.0237;-2.3398;0.0524;-0.2967;-0.0524;
2.6620;-0.8482;3.0237;-2.3398;0.0524;-0.2967;-0.0524;
2.6630;-0.8482;3.0237;-2.3398;0.0698;-0.1920;-0.0349;
2.6640;-0.8526;5.7710;-1.4165;0.0698;-0.1920;-0.0349;
2.7260;-0.8526;5.7710;-1.4165;0.0698;-0.1920;-0.0349;
2.7280;-0.8526;5.7710;-1.4165;0.0698;-0.1920;-0.0349;
2.7290;-0.8526;5.7710;-1.4165;-0.0698;-0.1571;-0.3665;
2.7300;-4.3622;4.2347;-3.4596;-0.0698;-0.1571;-0.3665;
2.7920;-4.3622;4.2347;-3.4596;-0.0698;-0.1571;-0.3665;
2.7940;-4.3622;4.2347;-3.4596;-0.0698;-0.1571;-0.3665;
2.7950;-4.3622;4.2347;-3.4596;-0.2967;-0.4538;-0.4538;
2.7960;-5.6305;-4.0899;-7.3729;-0.2967;-0.4538;-0.4538;
2.8580;-5.6305;-4.0899;-7.3729;-0.2967;-0.4538;-0.4538;
2.8600;-5.6305;-4.0899;-7.3729;-0.2967;-0.4538;-0.4538;
2.8610;-5.6305;-4.0899;-7.3729;-0.6981;-0.9424;-0.6632;
2.8610;2.1327;2.7782;-4.1183;-0.6981;-0.9424;-0.6632;
2.9240;2.1327;2.7782;-4.1183;-0.6981;-0.9424;-0.6632;
2.9260;2.1327;2.7782;-4.1183;-0.6981;-0.9424;-0.6632;
2.9270;2.1327;2.7782;-4.1183;-0.9773;-1.3089;-0.7156;
2.9280;-1.7605;-2.9559;-1.3578;-0.9773;-1.3089;-0.7156;
2.9900;-1.7605;-2.9559;-1.3578;-0.9773;-1.3089;-0.7156;
2.9920;-1.7605;-2.9559;-1.3578;-0.9773;-1.3089;-0.7156;
2.9930;-1.7605;-2.9559;-1.3578;-1.1693;-1.3264;-1.1519;
2.9940;-1.7793;3.0470;4.3130;-1.1693;-1.3264;-1.1519;
3.0560;-1.7793;3.0470;4.3130;-1.1693;-1.3264;-1.1519;
3.0790;-1.7793;3.0470;4.3130;-1.1693;-1.3264;-1.1519;
3.0800;-1.7793;3.0470;4.3130;-1.1519;-1.0821;-1.2391;
3.0800;-2.2486;0.3975;1.8954;-1.1519;-1.0821;-1.2391;
3.1220;-2.2486;0.3975;1.8954;-1.1519;-1.0821;-1.2391;
3.1240;-2.2486;0.3975;1.8954;-1.1519;-1.0821;-1.2391;
3.1250;-2.2486;0.3975;1.8954;-0.8552;-0.6283;-0.9250;
3.1260;-0.4884;0.7160;-3.2422;-0.8552;-0.6283;-0.9250;
3.1880;-0.4884;0.7160;-3.2422;-0.8552;-0.6283;-0.9250;
3.1900;-0.4884;0.7160;-3.2422;-0.8552;-0.6283;-0.9250;
3.1910;-0.4884;0.7160;-3.2422;-0.3316;-0.1396;-0.4363;
3.1910;-0.3973;1.8924;5.6847;-0.3316;-0.1396;-0.4363;
3.2540;-0.3973;1.8924;5.6847;-0.3316;-0.1396;-0.4363;
3.2560;-0.3973;1.8924;5.6847;-0.3316;-0.1396;-0.4363;
3.2570;-0.3973;1.8924;5.6847;0.3316;0.3316;0.0000;
3.2580;0.6400;-1.0473;-0.7393;0.3316;0.3316;0.0000;
3.3200;0.6400;-1.0473;-0.7393;0.3316;0.3316;0.0000;
3.3220;0.6400;-1.0473;-0.7393;0.3316;0.3316;0.0000;
3.3230;0.6400;-1.0473;-0.7393;0.5934;0.4887;0.0698;
3.3250;0.9723;-1.8043;0.0143;0.5934;0.4887;0.0698;
3.3870;0.9723;-1.8043;0.0143;0.5934;0.4887;0.0698;
3.3890;0.9723;-1.8043;0.0143;0.5934;0.4887;0.0698;
3.3900;0.9723;-1.8043;0.0143;0.7156;0.5585;0.0872;
3.3920;-4.8050;-0.2928;1.8888;0.7156;0.5585;0.0872;
3.4530;-4.8050;-0.2928;1.8888;0.7156;0.5585;0.0872;
3.4550;-4.8050;-0.2928;1.8888;0.7156;0.5585;0.0872;
3.4560;-4.8050;-0.2928;1.8888;0.7156;0.5759;0.1571;
3.4650;-7.4921;-1.6905;0.3802;0.7156;0.5759;0.1571;
3.5190;-7.4921;-1.6905;0.3802;0.7156;0.5759;0.1571;
3.5210;-7.4921;-1.6905;0.3802;0.7156;0.5759;0.1571;
3.5410;-7.4921;-1.6905;0.3802;0.6283;0.5759;0.1920;
3.5420;4.1421;-4.3822;-1.3257;0.6283;0.5759;0.1920;
3.5840;4.1421;-4.3822;-1.3257;0.6283;0.5759;0.1920;
3.5910;4.1421;-4.3822;-1.3257;0.6283;0.5759;0.1920;
3.5920;4.1421;-4.3822;-1.3257;0.4887;0.4538;0.0000;
3.5930;4.6364;-0.8893;4.3710;0.4887;0.4538;0.0000;
3.6500;4.6364;-0.8893;4.3710;0.4887;0.4538;0.0000;
3.6520;4.6364;-0.8893;4.3710;0.4887;0.4538;0.0000;
3.6530;4.6364;-0.8893;4.3710;0.3840;0.2792;-0.2269;
3.6540;0.2514;1.8903;-1.3002;0.3840;0.2792;-0.2269;
3.7160;0.2514;1.8903;-1.3002;0.3840;0.2792;-0.2269;
3.7180;0.2514;1.8903;-1.3002;0.3840;0.2792;-0.2269;
3.7190;0.2514;1.8903;-1.3002;0.1396;0.1047;-0.9250;
3.7200;-1.3119;2.9703;-0.9811;0.1396;0.1047;-0.9250;
3.7850;-1.3119;2.9703;-0.9811;0.1396;0.1047;-0.9250;
3.7860;-1.3119;2.9703;-0.9811;-0.2443;-0.0698;-2.0943;
3.7860;-1.8653;3.0877;0.2173;-0.2443;-0.0698;-2.0943;
3.7880;-1.8653;3.0877;0.2173;-0.2443;-0.0698;-2.0943;
3.8480;-1.8653;3.0877;0.2173;-0.2443;-0.0698;-2.0943;
3.8500;-1.8653;3.0877;0.2173;-0.2443;-0.0698;-2.0943;
3.8510;-1.8653;3.0877;0.2173;-0.2792;-0.3665;-1.6580;
3.8520;0.0796;3.9371;-1.7942;-0.2792;-0.3665;-1.6580;
3.9150;0.0796;3.9371;-1.7942;-0.2792;-0.3665;-1.6580;
3.9180;0.0796;3.9371;-1.7942;-0.2792;-0.3665;-1.6580;
3.9200;0.0796;3.9371;-1.7942;0.0000;-0.4887;-0.3316;
3.9200;-6.7809;-5.0361;-7.8819;0.0000;-0.4887;-0.3316;
3.9800;-6.7809;-5.0361;-7.8819;0.0000;-0.4887;-0.3316;
3.9820;-6.7809;-5.0361;-7.8819;0.0000;-0.4887;-0.3316;
3.9830;-6.7809;-5.0361;-7.8819;0.0872;-0.7854;0.8203;
3.9830;-1.2790;2.9630;-0.8263;0.0872;-0.7854;0.8203;
4.0460;-1.2790;2.9630;-0.8263;0.0872;-0.7854;0.8203;
4.0480;-1.2790;2.9630;-0.8263;0.0872;-0.7854;0.8203;
4.0480;-1.2790;2.9630;-0.8263;-0.2967;-1.0821;0.2269;
4.0490;-0.0539;-4.9433;-1.2169;-0.2967;-1.0821;0.2269;
4.1120;-0.0539;-4.9433;-1.2169;-0.2967;-1.0821;0.2269;
4.1140;-0.0539;-4.9433;-1.2169;-0.2967;-1.0821;0.2269;
4.1140;-0.0539;-4.9433;-1.2169;-0.8377;-1.3264;-0.8377;
4.1150;1.2900;4.6610;6.2850;-0.8377;-1.3264;-0.8377;
4.1780;1.2900;4.6610;6.2850;-0.8377;-1.3264;-0.8377;
4.1800;1.2900;4.6610;6.2850;-0.8377;-1.3264;-0.8377;
4.1810;1.2900;4.6610;6.2850;-0.8901;-1.2042;-0.9948;
4.1810;1.4903;-0.8573;1.5889;-0.8901;-1.2042;-0.9948;
4.2440;1.4903;-0.8573;1.5889;-0.8901;-1.2042;-0.9948;
4.2460;1.4903;-0.8573;1.5889;-0.8901;-1.2042;-0.9948;
4.2470;1.4903;-0.8573;1.5889;-0.5585;-0.6806;-0.6981;
4.2470;-1.4178;1.3613;1.6955;-0.5585;-0.6806;-0.6981;
4.3100;-1.4178;1.3613;1.6955;-0.5585;-0.6806;-0.6981;
4.3120;-1.4178;1.3613;1.6955;-0.5585;-0.6806;-0.6981;
4.3130;-1.4178;1.3613;1.6955;0.0000;-0.2094;-0.1920;
4.3130;-1.5097;-0.0184;2.7502;0.0000;-0.2094;-0.1920;
4.3760;-1.5097;-0.0184;2.7502;0.0000;-0.2094;-0.1920;
4.3780;-1.5097;-0.0184;2.7502;0.0000;-0.2094;-0.1920;
4.3780;-1.5097;-0.0184;2.7502;0.4712;0.1396;0.2269;
4.3790;-0.8439;0.0431;-3.7537;0.4712;0.1396;0.2269;
4.4420;-0.8439;0.0431;-3.7537;0.4712;0.1396;0.2269;
4.4440;-0.8439;0.0431;-3.7537;0.4712;0.1396;0.2269;
4.4450;-0.8439;0.0431;-3.7537;0.7679;0.3316;0.4014;
4.4450;-0.2687;1.1333;1.7767;0.7679;0.3316;0.4014;
4.5080;-0.2687;1.1333;1.7767;0.7679;0.3316;0.4014;
4.5100;-0.2687;1.1333;1.7767;0.7679;0.3316;0.4014;
4.5110;-0.2687;1.1333;1.7767;0.8377;0.2967;0.3141;
4.5110;-2.5888;-2.1461;0.1790;0.8377;0.2967;0.3141;
4.5740;-2.5888;-2.1461;0.1790;0.8377;0.2967;0.3141;
4.5760;-2.5888;-2.1461;0.1790;0.8377;0.2967;0.3141;
4.5770;-2.5888;-2.1461;0.1790;0.7156;0.1396;0.1222;
4.5770;-3.6121;-2.1272;1.1235;0.7156;0.1396;0.1222;
4.6400;-3.6121;-2.1272;1.1235;0.7156;0.1396;0.1222;
4.6420;-3.6121;-2.1272;1.1235;0.7156;0.1396;0.1222;
4.6430;-3.6121;-2.1272;1.1235;0.5410;-0.0698;-0.0349;
4.6430;0.2374;-0.9340;1.5490;0.5410;-0.0698;-0.0349;
4.7230;0.2374;-0.9340;1.5490;0.5410;-0.0698;-0.0349;
4.7310;0.2374;-0.9340;1.5490;0.3840;-0.2967;-0.1571;
4.7320;2.6025;-2.5836;0.2740;0.3840;-0.2967;-0.1571;
4.7330;2.6025;-2.5836;0.2740;0.3840;-0.2967;-0.1571;
4.7720;2.6025;-2.5836;0.2740;0.3840;-0.2967;-0.1571;
4.7740;2.6025;-2.5836;0.2740;0.3840;-0.2967;-0.1571;
4.7740;2.6025;-2.5836;0.2740;0.2269;-0.4712;-0.2618;
4.7750;1.3046;-2.7179;2.2476;0.2269;-0.4712;-0.2618;
4.8380;1.3046;-2.7179;2.2476;0.2269;-0.4712;-0.2618;
4.8400;1.3046;-2.7179;2.2476;0.2269;-0.4712;-0.2618;
4.8400;1.3046;-2.7179;2.2476;0.1745;-0.4712;-0.2094;
4.8410;-1.5159;0.7195;-1.3286;0.1745;-0.4712;-0.2094;
4.9040;-1.5159;0.7195;-1.3286;0.1745;-0.4712;-0.2094;
4.9060;-1.5159;0.7195;-1.3286;0.1745;-0.4712;-0.2094;
4.9070;-1.5159;0.7195;-1.3286;0.1396;-0.3316;-0.1571;
4.9080;0.9372;3.5523;0.9486;0.1396;-0.3316;-0.1571;
4.9700;0.9372;3.5523;0.9486;0.1396;-0.3316;-0.1571;
4.9720;0.9372;3.5523;0.9486;0.1396;-0.3316;-0.1571;
4.9730;0.9372;3.5523;0.9486;-0.6283;-0.1920;-0.7156;
4.9740;3.3351;5.0600;0.1108;-0.6283;-0.1920;-0.7156;
5.0420;3.3351;5.0600;0.1108;-0.6283;-0.1920;-0.7156;
5.0560;3.3351;5.0600;0.1108;-0.6283;-0.1920;-0.7156;
5.0570;3.3351;5.0600;0.1108;-0.1920;-0.0524;-0.0349;
5.0750;-0.0211;2.6275;-0.9418;-0.1920;-0.0524;-0.0349;
5.1020;-0.0211;2.6275;-0.9418;-0.1920;-0.0524;-0.0349;
5.1050;-0.0211;2.6275;-0.9418;-0.1920;-0.0524;-0.0349;
5.1060;-0.0211;2.6275;-0.9418;-0.1920;0.0349;-0.0349;
5.1070;-8.2014;-2.1228;-4.8120;-0.1920;0.0349;-0.0349;
5.1700;-8.2014;-2.1228;-4.8120;-0.1920;0.0349;-0.0349;
5.1720;-8.2014;-2.1228;-4.8120;-0.1920;0.0349;-0.0349;
5.1740;-8.2014;-2.1228;-4.8120;0.2967;0.0872;0.7156;
5.1750;-0.3187;0.6164;-3.2028;0.2967;0.0872;0.7156;
5.2340;-0.3187;0.6164;-3.2028;0.2967;0.0872;0.7156;
5.2360;-0.3187;0.6164;-3.2028;0.2967;0.0872;0.7156;
5.2370;-0.3187;0.6164;-3.2028;-0.0872;0.1047;0.3665;
5.2380;2.3136;-2.4512;-1.0662;-0.0872;0.1047;0.3665;
5.3000;2.3136;-2.4512;-1.0662;-0.0872;0.1047;0.3665;
5.3020;2.3136;-2.4512;-1.0662;-0.0872;0.1047;0.3665;
5.3030;2.3136;-2.4512;-1.0662;-0.7854;0.0000;-0.2967;
5.3040;1.5326;2.1357;3.0562;-0.7854;0.0000;-0.2967;
5.3660;1.5326;2.1357;3.0562;-0.7854;0.0000;-0.2967;
5.3690;1.5326;2.1357;3.0562;-0.7854;0.0000;-0.2967;
5.3700;1.5326;2.1357;3.0562;-0.8726;-0.0349;-0.4189;
5.3710;1.2159;-0.8553;0.4567;-0.8726;-0.0349;-0.4189;
5.4330;1.2159;-0.8553;0.4567;-0.8726;-0.0349;-0.4189;
5.4350;1.2159;-0.8553;0.4567;-0.8726;-0.0349;-0.4189;
5.4360;1.2159;-0.8553;0.4567;-0.6632;0.0174;-0.3490;
5.4380;-1.3557;1.7385;0.2006;-0.6632;0.0174;-0.3490;
5.4990;-1.3557;1.7385;0.2006;-0.6632;0.0174;-0.3490;
5.5010;-1.3557;1.7385;0.2006;-0.6632;0.0174;-0.3490;
5.5020;-1.3557;1.7385;0.2006;-0.1920;0.1920;-0.0349;
5.5040;-0.5244;-0.5203;1.3311;-0.1920;0.1920;-0.0349;
5.5820;-0.5244;-0.5203;1.3311;-0.1920;0.1920;-0.0349;
5.5840;-0.5244;-0.5203;1.3311;0.3316;0.3840;0.2618;
5.5870;1.8081;-0.3788;-0.1255;0.3316;0.3840;0.2618;
5.5880;1.8081;-0.3788;-0.1255;0.3316;0.3840;0.2618;
5.6300;1.8081;-0.3788;-0.1255;0.3316;0.3840;0.2618;
5.6330;1.8081;-0.3788;-0.1255;0.3316;0.3840;0.2618;
5.6340;1.8081;-0.3788;-0.1255;0.6458;0.4189;0.2792;
5.6350;-0.9894;-0.7357;-0.0542;0.6458;0.4189;0.2792;
5.7030;-0.9894;-0.7357;-0.0542;0.6458;0.4189;0.2792;
5.7040;-0.9894;-0.7357;-0.0542;0.6458;0.4189;0.2792;
5.7050;-0.9894;-0.7357;-0.0542;0.6458;0.2792;0.1571;
5.7060;-3.3627;-0.2788;-0.3908;0.6458;0.2792;0.1571;
5.7620;-3.3627;-0.2788;-0.3908;0.6458;0.2792;0.1571;
5.7640;-3.3627;-0.2788;-0.3908;0.6458;0.2792;0.1571;
5.7650;-3.3627;-0.2788;-0.3908;0.5236;0.0349;0.0349;
5.7660;-4.0610;-1.3690;-0.3155;0.5236;0.0349;0.0349;
5.8310;-4.0610;-1.3690;-0.3155;0.5236;0.0349;0.0349;
5.8310;-4.0610;-1.3690;-0.3155;0.3840;-0.2269;-0.0349;
5.8320;-0.3506;-0.7504;1.2864;0.3840;-0.2269;-0.0349;
5.8330;-0.3506;-0.7504;1.2864;0.3840;-0.2269;-0.0349;
5.8940;-0.3506;-0.7504;1.2864;0.3840;-0.2269;-0.0349;
5.8960;-0.3506;-0.7504;1.2864;0.3840;-0.2269;-0.0349;
5.8970;-0.3506;-0.7504;1.2864;0.2618;-0.5061;-0.2269;
5.8980;4.9767;-4.8930;3.9019;0.2618;-0.5061;-0.2269;
5.9620;4.9767;-4.8930;3.9019;0.2618;-0.5061;-0.2269;
5.9630;4.9767;-4.8930;3.9019;0.2618;-0.5061;-0.2269;
5.9630;4.9767;-4.8930;3.9019;0.2094;-0.6283;-0.3316;
5.9640;0.4789;0.5235;-2.2179;0.2094;-0.6283;-0.3316;
6.0260;0.4789;0.5235;-2.2179;0.2094;-0.6283;-0.3316;
6.0280;0.4789;0.5235;-2.2179;0.2094;-0.6283;-0.3316;
6.0290;0.4789;0.5235;-2.2179;0.1920;-0.6108;-0.2792;
6.0290;-1.3758;2.5377;-0.2695;0.1920;-0.6108;-0.2792;
6.0920;-1.3758;2.5377;-0.2695;0.1920;-0.6108;-0.2792;
6.0940;-1.3758;2.5377;-0.2695;0.1920;-0.6108;-0.2792;
6.0950;-1.3758;2.5377;-0.2695;0.1571;-0.4887;0.0000;
6.0950;1.0805;3.3828;0.8858;0.1571;-0.4887;0.0000;
6.1580;1.0805;3.3828;0.8858;0.1571;-0.4887;0.0000;
6.1600;1.0805;3.3828;0.8858;0.1571;-0.4887;0.0000;
6.1600;1.0805;3.3828;0.8858;0.0872;-0.2443;0.4189;
6.1610;2.7814;4.0834;-1.5712;0.0872;-0.2443;0.4189;
6.2240;2.7814;4.0834;-1.5712;0.0872;-0.2443;0.4189;
6.2260;2.7814;4.0834;-1.5712;0.0872;-0.2443;0.4189;
6.2270;2.7814;4.0834;-1.5712;0.0000;-0.1047;0.4538;
6.2270;-9.7542;-4.8817;-10.5405;0.0000;-0.1047;0.4538;
6.2900;-9.7542;-4.8817;-10.5405;0.0000;-0.1047;0.4538;
6.2920;-9.7542;-4.8817;-10.5405;0.0000;-0.1047;0.4538;
6.2930;-9.7542;-4.8817;-10.5405;-0.1396;0.0000;0.3316;
6.2930;-1.7976;4.0228;-0.5105;-0.1396;0.0000;0.3316;
6.3560;-1.7976;4.0228;-0.5105;-0.1396;0.0000;0.3316;
6.3580;-1.7976;4.0228;-0.5105;-0.1396;0.0000;0.3316;
6.3590;-1.7976;4.0228;-0.5105;-0.4712;0.0174;0.0174;
6.3590;1.9729;-4.4803;-2.4189;-0.4712;0.0174;0.0174;
6.4220;1.9729;-4.4803;-2.4189;-0.4712;0.0174;0.0174;
6.4240;1.9729;-4.4803;-2.4189;-0.4712;0.0174;0.0174;
6.4250;1.9729;-4.4803;-2.4189;-0.7854;0.0349;-0.2967;
6.4250;1.1045;6.0918;6.5951;-0.7854;0.0349;-0.2967;
6.4880;1.1045;6.0918;6.5951;-0.7854;0.0349;-0.2967;
6.4900;1.1045;6.0918;6.5951;-0.7854;0.0349;-0.2967;
6.4910;1.1045;6.0918;6.5951;-0.9599;0.0524;-0.5585;
6.4910;2.3054;-1.2934;0.2972;-0.9599;0.0524;-0.5585;
6.5540;2.3054;-1.2934;0.2972;-0.9599;0.0524;-0.5585;
6.5560;2.3054;-1.2934;0.2972;-0.9599;0.0524;-0.5585;
6.5570;2.3054;-1.2934;0.2972;-0.8203;0.1396;-0.5410;
6.5570;-0.1859;1.7845;-0.3514;-0.8203;0.1396;-0.5410;
6.6200;-0.1859;1.7845;-0.3514;-0.8203;0.1396;-0.5410;
6.6220;-0.1859;1.7845;-0.3514;-0.8203;0.1396;-0.5410;
6.6230;-0.1859;1.7845;-0.3514;-0.3490;0.2618;-0.2094;
6.6230;0.2071;-0.2452;3.1957;-0.3490;0.2618;-0.2094;
6.6870;0.2071;-0.2452;3.1957;-0.3490;0.2618;-0.2094;
6.6880;0.2071;-0.2452;3.1957;-0.3490;0.2618;-0.2094;
6.6890;0.2071;-0.2452;3.1957;0.3490;0.3840;0.2443;
6.6900;-1.0576;1.0183;-3.4736;0.3490;0.3840;0.2443;
6.7520;-1.0576;1.0183;-3.4736;0.3490;0.3840;0.2443;
6.7540;-1.0576;1.0183;-3.4736;0.3490;0.3840;0.2443;
6.7550;-1.0576;1.0183;-3.4736;0.6108;0.3840;0.3490;
6.7560;-0.0401;0.2626;1.3759;0.6108;0.3840;0.3490;
6.8210;-0.0401;0.2626;1.3759;0.6108;0.3840;0.3490;
6.8240;-0.0401;0.2626;1.3759;0.6108;0.3840;0.3490;
6.8260;-0.0401;0.2626;1.3759;0.6458;0.3141;0.3141;
6.8290;-1.4206;-1.5426;0.9689;0.6458;0.3141;0.3141;
6.8850;-1.4206;-1.5426;0.9689;0.6458;0.3141;0.3141;
6.8860;-1.4206;-1.5426;0.9689;0.6458;0.3141;0.3141;
6.8880;-1.4206;-1.5426;0.9689;0.5410;0.0872;0.1222;
6.8890;-4.1863;-3.4041;0.3696;0.5410;0.0872;0.1222;
6.9500;-4.1863;-3.4041;0.3696;0.5410;0.0872;0.1222;
6.9520;-4.1863;-3.4041;0.3696;0.5410;0.0872;0.1222;
6.9530;-4.1863;-3.4041;0.3696;0.4189;-0.1396;-0.0524;
6.9540;-0.0396;-0.9216;1.6852;0.4189;-0.1396;-0.0524;
7.0160;-0.0396;-0.9216;1.6852;0.4189;-0.1396;-0.0524;
7.0180;-0.0396;-0.9216;1.6852;0.4189;-0.1396;-0.0524;
7.0190;-0.0396;-0.9216;1.6852;0.3490;-0.3316;-0.2094;
7.0200;4.1953;-3.2352;1.5400;0.3490;-0.3316;-0.2094;
7.0820;4.1953;-3.2352;1.5400;0.3490;-0.3316;-0.2094;
7.0840;4.1953;-3.2352;1.5400;0.3490;-0.3316;-0.2094;
7.0850;4.1953;-3.2352;1.5400;-0.8552;-0.3316;-1.2217;
7.0860;3.1598;-1.3788;3.3851;-0.8552;-0.3316;-1.2217;
7.1480;3.1598;-1.3788;3.3851;-0.8552;-0.3316;-1.2217;
7.1500;3.1598;-1.3788;3.3851;-0.8552;-0.3316;-1.2217;
7.1510;3.1598;-1.3788;3.3851;-1.4486;-0.2792;-1.6231;
7.1520;-0.4623;0.9283;-0.7636;-1.4486;-0.2792;-1.6231;
7.2150;-0.4623;0.9283;-0.7636;-1.4486;-0.2792;-1.6231;
7.2170;-0.4623;0.9283;-0.7636;-1.4486;-0.2792;-1.6231;
7.2180;-0.4623;0.9283;-0.7636;-1.5184;-0.2094;-1.6405;
7.2200;1.3736;3.9751;0.6364;-1.5184;-0.2094;-1.6405;
7.2800;1.3736;3.9751;0.6364;-1.5184;-0.2094;-1.6405;
7.2820;1.3736;3.9751;0.6364;-1.5184;-0.2094;-1.6405;
7.2830;1.3736;3.9751;0.6364;-1.0297;-0.1920;-1.3264;
7.2840;2.9490;5.1892;-0.5393;-1.0297;-0.1920;-1.3264;
7.3460;2.9490;5.1892;-0.5393;-1.0297;-0.1920;-1.3264;
7.3480;2.9490;5.1892;-0.5393;-1.0297;-0.1920;-1.3264;
7.3490;2.9490;5.1892;-0.5393;0.0524;-0.1745;-0.5585;
7.3500;-5.8787;-0.5253;-5.1105;0.0524;-0.1745;-0.5585;
7.4130;-5.8787;-0.5253;-5.1105;0.0524;-0.1745;-0.5585;
7.4150;-5.8787;-0.5253;-5.1105;0.0524;-0.1745;-0.5585;
7.4160;-5.8787;-0.5253;-5.1105;0.0349;-0.0872;-0.5585;
7.4180;-7.2090;0.2743;-1.5420;0.0349;-0.0872;-0.5585;
7.4790;-7.2090;0.2743;-1.5420;0.0349;-0.0872;-0.5585;
7.4810;-7.2090;0.2743;-1.5420;0.0349;-0.0872;-0.5585;
7.4820;-7.2090;0.2743;-1.5420;0.5585;0.0000;0.1745;
7.4840;-0.2349;-7.0652;2.1317;0.5585;0.0000;0.1745;
7.5440;-0.2349;-7.0652;2.1317;0.5585;0.0000;0.1745;
7.5470;-0.2349;-7.0652;2.1317;0.5585;0.0000;0.1745;
7.5480;-0.2349;-7.0652;2.1317;0.4887;0.0698;0.4712;
7.5490;3.1908;6.2802;4.5117;0.4887;0.0698;0.4712;
7.6110;3.1908;6.2802;4.5117;0.4887;0.0698;0.4712;
7.6130;3.1908;6.2802;4.5117;0.4887;0.0698;0.4712;
7.6140;3.1908;6.2802;4.5117;0.0872;0.1222;0.2443;
7.6400;3.0137;0.4209;3.3133;0.0872;0.1222;0.2443;
7.6770;3.0137;0.4209;3.3133;0.0872;0.1222;0.2443;
7.6780;3.0137;0.4209;3.3133;0.0872;0.1222;0.2443;
7.6790;3.0137;0.4209;3.3133;-0.6632;0.2269;-0.4189;
7.6800;-3.5945;0.5804;-4.2905;-0.6632;0.2269;-0.4189;
7.7420;-3.5945;0.5804;-4.2905;-0.6632;0.2269;-0.4189;
7.7440;-3.5945;0.5804;-4.2905;-0.6632;0.2269;-0.4189;
7.7600;-3.5945;0.5804;-4.2905;-0.6806;0.3316;-0.5236;
7.7600;2.5939;0.6792;6.2522;-0.6806;0.3316;-0.5236;
7.8080;2.5939;0.6792;6.2522;-0.6806;0.3316;-0.5236;
7.8100;2.5939;0.6792;6.2522;-0.6806;0.3316;-0.5236;
7.8110;2.5939;0.6792;6.2522;-0.0524;0.4014;-0.0349;
7.8120;-2.1400;0.0025;-2.1410;-0.0524;0.4014;-0.0349;
7.8740;-2.1400;0.0025;-2.1410;-0.0524;0.4014;-0.0349;
7.8760;-2.1400;0.0025;-2.1410;-0.0524;0.4014;-0.0349;
7.8770;-2.1400;0.0025;-2.1410;0.3665;0.4363;0.2792;
7.8780;1.1111;0.1190;4.3054;0.3665;0.4363;0.2792;
7.9440;1.1111;0.1190;4.3054;0.3665;0.4363;0.2792;
7.9450;1.1111;0.1190;4.3054;0.5410;0.3840;0.3316;
7.9460;-1.4570;-1.0400;0.6681;0.5410;0.3840;0.3316;
7.9480;-1.4570;-1.0400;0.6681;0.5410;0.3840;0.3316;
8.0120;-1.4570;-1.0400;0.6681;0.5410;0.3840;0.3316;
8.0130;-1.4570;-1.0400;0.6681;0.5410;0.3840;0.3316;
8.0140;-1.4570;-1.0400;0.6681;0.5061;0.2443;0.2792;
8.0150;-4.3759;-2.0568;-0.5100;0.5061;0.2443;0.2792;
8.0730;-4.3759;-2.0568;-0.5100;0.5061;0.2443;0.2792;
8.0740;-4.3759;-2.0568;-0.5100;0.5061;0.2443;0.2792;
8.0750;-4.3759;-2.0568;-0.5100;0.4014;0.0524;0.1920;
8.0760;-0.0726;-1.4023;1.3027;0.4014;0.0524;0.1920;
8.1390;-0.0726;-1.4023;1.3027;0.4014;0.0524;0.1920;
8.1400;-0.0726;-1.4023;1.3027;0.4014;0.0524;0.1920;
8.1410;-0.0726;-1.4023;1.3027;0.3141;-0.0872;0.0698;
8.1410;5.4044;-4.5964;0.9877;0.3141;-0.0872;0.0698;
8.2040;5.4044;-4.5964;0.9877;0.3141;-0.0872;0.0698;
8.2060;5.4044;-4.5964;0.9877;0.3141;-0.0872;0.0698;
8.2070;5.4044;-4.5964;0.9877;0.2094;-0.2443;-0.1222;
8.2070;0.3735;-0.4631;2.0317;0.2094;-0.2443;-0.1222;
8.2700;0.3735;-0.4631;2.0317;0.2094;-0.2443;-0.1222;
8.2720;0.3735;-0.4631;2.0317;0.2094;-0.2443;-0.1222;
8.2730;0.3735;-0.4631;2.0317;0.1745;-0.2443;-0.1571;
8.2730;-1.1259;1.4685;-1.2164;0.1745;-0.2443;-0.1571;
8.3360;-1.1259;1.4685;-1.2164;0.1745;-0.2443;-0.1571;
8.3380;-1.1259;1.4685;-1.2164;0.1745;-0.2443;-0.1571;
8.3390;-1.1259;1.4685;-1.2164;-0.7156;-0.1920;-1.0472;
8.3390;0.7639;3.7570;0.9345;-0.7156;-0.1920;-1.0472;
8.4020;0.7639;3.7570;0.9345;-0.7156;-0.1920;-1.0472;
8.4040;0.7639;3.7570;0.9345;-0.7156;-0.1920;-1.0472;
8.4040;0.7639;3.7570;0.9345;-1.1693;-0.1396;-1.5358;
8.4050;3.8651;4.1780;0.5364;-1.1693;-0.1396;-1.5358;
8.4680;3.8651;4.1780;0.5364;-1.1693;-0.1396;-1.5358;
8.4700;3.8651;4.1780;0.5364;-1.1693;-0.1396;-1.5358;
8.4710;3.8651;4.1780;0.5364;-1.1868;-0.1396;-1.5707;
8.4710;-3.0506;-1.7170;-5.4442;-1.1868;-0.1396;-1.5707;
8.5340;-3.0506;-1.7170;-5.4442;-1.1868;-0.1396;-1.5707;
8.5360;-3.0506;-1.7170;-5.4442;-1.1868;-0.1396;-1.5707;
8.5370;-3.0506;-1.7170;-5.4442;0.4538;-0.1222;0.3316;
8.5380;-7.3457;0.3646;-3.3208;0.4538;-0.1222;0.3316;
8.6000;-7.3457;0.3646;-3.3208;0.4538;-0.1222;0.3316;
8.6020;-7.3457;0.3646;-3.3208;0.4538;-0.1222;0.3316;
8.6030;-7.3457;0.3646;-3.3208;0.6981;-0.0174;0.9250;
8.6040;-1.0809;-4.9882;5.2915;0.6981;-0.0174;0.9250;
8.6660;-1.0809;-4.9882;5.2915;0.6981;-0.0174;0.9250;
8.6680;-1.0809;-4.9882;5.2915;0.6981;-0.0174;0.9250;
8.6700;-1.0809;-4.9882;5.2915;0.4363;0.0000;0.9075;
8.6700;4.9760;3.3767;3.8575;0.4363;0.0000;0.9075;
8.7320;4.9760;3.3767;3.8575;0.4363;0.0000;0.9075;
8.7340;4.9760;3.3767;3.8575;0.4363;0.0000;0.9075;
8.7350;4.9760;3.3767;3.8575;-0.4712;0.0000;-0.0524;
8.7360;3.4929;0.9294;2.3135;-0.4712;0.0000;-0.0524;
8.7980;3.4929;0.9294;2.3135;-0.4712;0.0000;-0.0524;
8.8000;3.4929;0.9294;2.3135;-0.4712;0.0000;-0.0524;
8.8010;3.4929;0.9294;2.3135;-0.8552;-0.0349;-0.6283;
8.8010;-0.5639;-1.1276;-1.5881;-0.8552;-0.0349;-0.6283;
8.8640;-0.5639;-1.1276;-1.5881;-0.8552;-0.0349;-0.6283;
8.8660;-0.5639;-1.1276;-1.5881;-0.8552;-0.0349;-0.6283;
8.8670;-0.5639;-1.1276;-1.5881;-0.4887;0.0174;-0.4363;
8.8670;-2.6256;2.3973;4.2938;-0.4887;0.0174;-0.4363;
8.9300;-2.6256;2.3973;4.2938;-0.4887;0.0174;-0.4363;
8.9320;-2.6256;2.3973;4.2938;-0.4887;0.0174;-0.4363;
8.9330;-2.6256;2.3973;4.2938;-0.1571;0.0872;-0.1047;
8.9340;-0.3161;-0.9026;-1.2145;-0.1571;0.0872;-0.1047;
8.9970;-0.3161;-0.9026;-1.2145;-0.1571;0.0872;-0.1047;
8.9980;-0.3161;-0.9026;-1.2145;-0.1571;0.0872;-0.1047;
8.9990;-0.3161;-0.9026;-1.2145;0.3665;0.1920;0.3840;
8.9990;0.3688;-0.9234;2.5680;0.3665;0.1920;0.3840;
9.0620;0.3688;-0.9234;2.5680;0.3665;0.1920;0.3840;
9.0640;0.3688;-0.9234;2.5680;0.3665;0.1920;0.3840;
9.0650;0.3688;-0.9234;2.5680;0.5410;0.1745;0.3490;
9.0650;-4.0213;-0.4025;0.6704;0.5410;0.1745;0.3490;
9.1290;-4.0213;-0.4025;0.6704;0.5410;0.1745;0.3490;
9.1300;-4.0213;-0.4025;0.6704;0.5410;0.1745;0.3490;
9.1310;-4.0213;-0.4025;0.6704;0.5410;0.0872;0.0872;
9.1310;-1.9514;0.1285;0.8260;0.5410;0.0872;0.0872;
9.1940;-1.9514;0.1285;0.8260;0.5410;0.0872;0.0872;
9.1960;-1.9514;0.1285;0.8260;0.5410;0.0872;0.0872;
9.1970;-1.9514;0.1285;0.8260;0.4887;-0.0698;-0.1222;
9.1970;-0.5763;-0.4338;1.8725;0.4887;-0.0698;-0.1222;
9.2600;-0.5763;-0.4338;1.8725;0.4887;-0.0698;-0.1222;
9.2620;-0.5763;-0.4338;1.8725;0.4887;-0.0698;-0.1222;
9.2630;-0.5763;-0.4338;1.8725;0.3665;-0.2967;-0.3490;
9.2650;4.8929;-5.5619;2.1072;0.3665;-0.2967;-0.3490;
9.3260;4.8929;-5.5619;2.1072;0.3665;-0.2967;-0.3490;
9.3280;4.8929;-5.5619;2.1072;0.3665;-0.2967;-0.3490;
9.3290;4.8929;-5.5619;2.1072;0.3141;-0.4014;-0.4189;
9.3310;1.0903;-1.0538;-0.4057;0.3141;-0.4014;-0.4189;
9.3940;1.0903;-1.0538;-0.4057;0.3141;-0.4014;-0.4189;
9.3970;1.0903;-1.0538;-0.4057;0.3141;-0.4014;-0.4189;
9.4000;1.0903;-1.0538;-0.4057;0.2618;-0.3665;-0.4363;
9.4030;-1.7272;1.5415;-1.0014;0.2618;-0.3665;-0.4363;
9.4580;-1.7272;1.5415;-1.0014;0.2618;-0.3665;-0.4363;
9.4610;-1.7272;1.5415;-1.0014;0.2618;-0.3665;-0.4363;
9.4620;-1.7272;1.5415;-1.0014;-1.3264;-0.2618;-1.8500;
9.4630;1.1136;2.9028;1.2288;-1.3264;-0.2618;-1.8500;
9.5240;1.1136;2.9028;1.2288;-1.3264;-0.2618;-1.8500;
9.5270;1.1136;2.9028;1.2288;-1.3264;-0.2618;-1.8500;
9.5280;1.1136;2.9028;1.2288;-1.0472;-0.1920;-1.3962;
9.5290;4.3754;4.3472;-0.7242;-1.0472;-0.1920;-1.3962;
9.5910;4.3754;4.3472;-0.7242;-1.0472;-0.1920;-1.3962;
9.5930;4.3754;4.3472;-0.7242;-1.0472;-0.1920;-1.3962;
9.5940;4.3754;4.3472;-0.7242;-0.3316;-0.1047;-0.5410;
9.5960;-2.1329;-2.9998;-6.2050;-0.3316;-0.1047;-0.5410;
9.6570;-2.1329;-2.9998;-6.2050;-0.3316;-0.1047;-0.5410;
9.6590;-2.1329;-2.9998;-6.2050;-0.3316;-0.1047;-0.5410;
9.6600;-2.1329;-2.9998;-6.2050;0.9424;0.0000;1.1868;
9.6620;-5.8784;0.8170;-1.8907;0.9424;0.0000;1.1868;
9.8650;-5.8784;0.8170;-1.8907;0.9424;0.0000;1.1868;
9.8660;-5.8784;0.8170;-1.8907;0.9424;0.0000;1.1868;
9.8670;-5.8784;0.8170;-1.8907;0.9424;0.0000;1.1868;
9.8680;-5.8784;0.8170;-1.8907;-0.7854;0.0698;-0.2094;
9.8690;-5.8784;0.8170;-1.8907;-0.7854;0.0698;-0.2094;
9.8700;-5.8784;0.8170;-1.8907;-0.7854;0.0698;-0.2094;
9.8710;-5.8784;0.8170;-1.8907;-0.7854;0.0698;-0.2094;
9.8720;2.9474;-3.8082;0.6192;-0.7854;0.0698;-0.2094;
9.8740;2.9474;-3.8082;0.6192;-0.7854;0.0698;-0.2094;
9.8750;2.9474;-3.8082;0.6192;-0.7854;0.0698;-0.2094;
9.8770;2.9474;-3.8082;0.6192;-0.7854;0.0698;-0.2094;
9.8780;2.9474;-3.8082;0.6192;-0.7854;0.0698;-0.2094;
9.8800;2.9474;-3.8082;0.6192;-0.7854;0.0698;-0.2094;
9.8810;2.9474;-3.8082;0.6192;-0.7854;0.0698;-0.2094;
9.8820;2.9474;-3.8082;0.6192;-0.7854;0.0698;-0.2094;
9.9200;2.9474;-3.8082;0.6192;-0.7854;0.0698;-0.2094;
9.9220;2.9474;-3.8082;0.6192;-0.7854;0.0698;-0.2094;
9.9230;2.9474;-3.8082;0.6192;-0.6981;0.0349;-0.3665;
9.9240;-1.5645;1.9433;-1.4352;-0.6981;0.0349;-0.3665;
9.9860;-1.5645;1.9433;-1.4352;-0.6981;0.0349;-0.3665;
9.9900;-1.5645;1.9433;-1.4352;-0.6981;0.0349;-0.3665;
9.9910;-1.5645;1.9433;-1.4352;-0.2443;0.0872;-0.2967;
9.9920;0.5004;0.9011;4.9707;-0.2443;0.0872;-0.2967;
10.0550;0.5004;0.9011;4.9707;-0.2443;0.0872;-0.2967;
10.0560;0.5004;0.9011;4.9707;0.1745;0.2094;0.0174;
10.0570;-0.9330;-0.1049;-3.3797;0.1745;0.2094;0.0174;
10.0590;-0.9330;-0.1049;-3.3797;0.1745;0.2094;0.0174;
10.1180;-0.9330;-0.1049;-3.3797;0.1745;0.2094;0.0174;
10.1220;-0.9330;-0.1049;-3.3797;0.1745;0.2094;0.0174;
10.1220;-0.9330;-0.1049;-3.3797;0.4538;0.2792;0.2443;
10.1230;0.1605;-0.4366;3.9057;0.4538;0.2792;0.2443;
10.1840;0.1605;-0.4366;3.9057;0.4538;0.2792;0.2443;
10.1860;0.1605;-0.4366;3.9057;0.4538;0.2792;0.2443;
10.1870;0.1605;-0.4366;3.9057;0.4887;0.2618;0.2094;
10.1870;-2.0423;-1.3144;0.7141;0.4887;0.2618;0.2094;
10.2500;-2.0423;-1.3144;0.7141;0.4887;0.2618;0.2094;
10.2520;-2.0423;-1.3144;0.7141;0.4887;0.2618;0.2094;
10.2520;-2.0423;-1.3144;0.7141;0.4189;0.1571;0.0524;
10.2530;-3.1260;0.7051;0.0460;0.4189;0.1571;0.0524;
10.3160;-3.1260;0.7051;0.0460;0.4189;0.1571;0.0524;
10.3180;-3.1260;0.7051;0.0460;0.4189;0.1571;0.0524;
10.3190;-3.1260;0.7051;0.0460;0.2792;0.0000;-0.0524;
10.3190;0.3359;0.2067;1.5787;0.2792;0.0000;-0.0524;
10.3820;0.3359;0.2067;1.5787;0.2792;0.0000;-0.0524;
10.3840;0.3359;0.2067;1.5787;0.2792;0.0000;-0.0524;
10.3850;0.3359;0.2067;1.5787;0.1745;-0.1396;-0.1745;
10.3850;4.9819;-4.5378;1.9572;0.1745;-0.1396;-0.1745;
10.4480;4.9819;-4.5378;1.9572;0.1745;-0.1396;-0.1745;
10.4500;4.9819;-4.5378;1.9572;0.1745;-0.1396;-0.1745;
10.4510;4.9819;-4.5378;1.9572;0.1047;-0.2967;-0.3490;
10.4510;-1.4879;-1.2454;0.2263;0.1047;-0.2967;-0.3490;
10.5140;-1.4879;-1.2454;0.2263;0.1047;-0.2967;-0.3490;
10.5160;-1.4879;-1.2454;0.2263;0.1047;-0.2967;-0.3490;
10.5170;-1.4879;-1.2454;0.2263;0.1047;-0.2967;-0.3141;
10.5170;-0.4746;0.1823;-1.3240;0.1047;-0.2967;-0.3141;
10.5800;-0.4746;0.1823;-1.3240;0.1047;-0.2967;-0.3141;
10.5820;-0.4746;0.1823;-1.3240;0.1047;-0.2967;-0.3141;
10.5830;-0.4746;0.1823;-1.3240;0.1396;-0.2269;-0.0524;
10.5830;1.3150;3.5641;1.3055;0.1396;-0.2269;-0.0524;
10.6460;1.3150;3.5641;1.3055;0.1396;-0.2269;-0.0524;
10.6480;1.3150;3.5641;1.3055;0.1396;-0.2269;-0.0524;
10.6490;1.3150;3.5641;1.3055;0.1222;-0.1222;0.3490;
10.6490;3.4956;5.3961;-0.4593;0.1222;-0.1222;0.3490;
10.7120;3.4956;5.3961;-0.4593;0.1222;-0.1222;0.3490;
10.7140;3.4956;5.3961;-0.4593;0.1222;-0.1222;0.3490;
10.7150;3.4956;5.3961;-0.4593;0.0524;-0.0872;0.4363;
10.7160;-4.1807;-2.7624;-6.5754;0.0524;-0.0872;0.4363;
10.7780;-4.1807;-2.7624;-6.5754;0.0524;-0.0872;0.4363;
10.7800;-4.1807;-2.7624;-6.5754;0.0524;-0.0872;0.4363;
10.7810;-4.1807;-2.7624;-6.5754;-0.0349;-0.0872;0.3665;
10.7820;-4.3842;0.2627;-3.5430;-0.0349;-0.0872;0.3665;
10.8530;-4.3842;0.2627;-3.5430;-0.0349;-0.0872;0.3665;
10.8540;-4.3842;0.2627;-3.5430;-0.1222;-0.0872;0.2792;
10.8550;-0.0261;3.6632;-1.2003;-0.1222;-0.0872;0.2792;
10.8560;-0.0261;3.6632;-1.2003;-0.1222;-0.0872;0.2792;
10.9130;-0.0261;3.6632;-1.2003;-0.1222;-0.0872;0.2792;
10.9140;-0.0261;3.6632;-1.2003;-0.1222;-0.0872;0.2792;
10.9250;-0.0261;3.6632;-1.2003;-0.3840;-0.1047;0.0524;
10.9270;1.6391;3.4129;3.4910;-0.3840;-0.1047;0.0524;
10.9760;1.6391;3.4129;3.4910;-0.3840;-0.1047;0.0524;
10.9780;1.6391;3.4129;3.4910;-0.3840;-0.1047;0.0524;
10.9800;1.6391;3.4129;3.4910;-0.6632;-0.1920;-0.2269;
10.9810;3.0371;1.2830;1.5116;-0.6632;-0.1920;-0.2269;
11.0420;3.0371;1.2830;1.5116;-0.6632;-0.1920;-0.2269;
11.0440;3.0371;1.2830;1.5116;-0.6632;-0.1920;-0.2269;
11.0460;3.0371;1.2830;1.5116;-0.7330;-0.1920;-0.4363;
11.0470;0.3755;-1.7615;1.2645;-0.7330;-0.1920;-0.4363;
11.1080;0.3755;-1.7615;1.2645;-0.7330;-0.1920;-0.4363;
11.1100;0.3755;-1.7615;1.2645;-0.7330;-0.1920;-0.4363;
11.1110;0.3755;-1.7615;1.2645;-0.6108;-0.1222;-0.3840;
11.1120;-2.2218;2.6818;1.7667;-0.6108;-0.1222;-0.3840;
11.1740;-2.2218;2.6818;1.7667;-0.6108;-0.1222;-0.3840;
11.1760;-2.2218;2.6818;1.7667;-0.6108;-0.1222;-0.3840;
11.1770;-2.2218;2.6818;1.7667;-0.1745;0.0524;-0.0872;
11.1780;2.0085;-0.2167;0.2184;-0.1745;0.0524;-0.0872;
11.2420;2.0085;-0.2167;0.2184;-0.1745;0.0524;-0.0872;
11.2430;2.0085;-0.2167;0.2184;-0.1745;0.0524;-0.0872;
11.2440;2.0085;-0.2167;0.2184;0.2269;0.2443;0.1745;
11.2460;-0.3017;0.7951;1.8696;0.2269;0.2443;0.1745;
11.3070;-0.3017;0.7951;1.8696;0.2269;0.2443;0.1745;
11.3090;-0.3017;0.7951;1.8696;0.2269;0.2443;0.1745;
11.3100;-0.3017;0.7951;1.8696;0.4887;0.3141;0.2618;
11.3120;-0.9376;-0.1293;0.0293;0.4887;0.3141;0.2618;
11.3720;-0.9376;-0.1293;0.0293;0.4887;0.3141;0.2618;
11.3740;-0.9376;-0.1293;0.0293;0.4887;0.3141;0.2618;
11.3750;-0.9376;-0.1293;0.0293;0.5934;0.2792;0.2094;
11.3760;-2.1808;-1.2087;1.1717;0.5934;0.2792;0.2094;
11.4380;-2.1808;-1.2087;1.1717;0.5934;0.2792;0.2094;
11.4410;-2.1808;-1.2087;1.1717;0.5934;0.2792;0.2094;
11.4420;-2.1808;-1.2087;1.1717;0.5759;0.1047;0.0349;
11.4430;-3.2997;-1.3274;0.1292;0.5759;0.1047;0.0349;
11.5040;-3.2997;-1.3274;0.1292;0.5759;0.1047;0.0349;
11.5070;-3.2997;-1.3274;0.1292;0.5759;0.1047;0.0349;
11.5080;-3.2997;-1.3274;0.1292;0.5061;-0.1047;-0.1047;
11.5090;-0.8471;0.0671;0.8609;0.5061;-0.1047;-0.1047;
11.5710;-0.8471;0.0671;0.8609;0.5061;-0.1047;-0.1047;
11.5730;-0.8471;0.0671;0.8609;0.5061;-0.1047;-0.1047;
11.5740;-0.8471;0.0671;0.8609;0.3840;-0.2967;-0.2443;
11.5760;3.3502;-5.7812;2.6074;0.3840;-0.2967;-0.2443;
11.6380;3.3502;-5.7812;2.6074;0.3840;-0.2967;-0.2443;
11.6390;3.3502;-5.7812;2.6074;0.3840;-0.2967;-0.2443;
11.6400;3.3502;-5.7812;2.6074;0.2618;-0.4014;-0.3316;
11.6420;0.4921;0.0847;-0.1730;0.2618;-0.4014;-0.3316;
11.7030;0.4921;0.0847;-0.1730;0.2618;-0.4014;-0.3316;
11.7050;0.4921;0.0847;-0.1730;0.2618;-0.4014;-0.3316;
11.7070;0.4921;0.0847;-0.1730;-0.8552;-0.3316;-1.3264;
11.7080;-0.6395;2.3005;-0.5727;-0.8552;-0.3316;-1.3264;
11.7690;-0.6395;2.3005;-0.5727;-0.8552;-0.3316;-1.3264;
11.7710;-0.6395;2.3005;-0.5727;-0.8552;-0.3316;-1.3264;
11.7720;-0.6395;2.3005;-0.5727;-1.4137;-0.2443;-1.7802;
11.7730;1.4236;3.5629;1.0474;-1.4137;-0.2443;-1.7802;
11.8340;1.4236;3.5629;1.0474;-1.4137;-0.2443;-1.7802;
11.8370;1.4236;3.5629;1.0474;-1.4137;-0.2443;-1.7802;
11.8390;1.4236;3.5629;1.0474;-1.4835;-0.1920;-1.8151;
11.8400;2.9497;4.5059;-0.6394;-1.4835;-0.1920;-1.8151;
11.9000;2.9497;4.5059;-0.6394;-1.4835;-0.1920;-1.8151;
11.9020;2.9497;4.5059;-0.6394;-1.4835;-0.1920;-1.8151;
11.9030;2.9497;4.5059;-0.6394;-0.2792;-0.1396;-0.5236;
11.9040;-4.6616;-3.1729;-8.1616;-0.2792;-0.1396;-0.5236;
11.9660;-4.6616;-3.1729;-8.1616;-0.2792;-0.1396;-0.5236;
11.9680;-4.6616;-3.1729;-8.1616;-0.2792;-0.1396;-0.5236;
11.9690;-4.6616;-3.1729;-8.1616;0.9424;-0.0349;0.9250;
11.9700;-3.2917;1.3659;-3.6402;0.9424;-0.0349;0.9250;
12.0320;-3.2917;1.3659;-3.6402;0.9424;-0.0349;0.9250;
12.0390;-3.2917;1.3659;-3.6402;0.9424;-0.0349;0.9250;
12.0400;-3.2917;1.3659;-3.6402;0.6981;0.1745;1.1170;
12.0410;0.0175;-8.2686;-6.0675;0.6981;0.1745;1.1170;
12.0980;0.0175;-8.2686;-6.0675;0.6981;0.1745;1.1170;
12.1060;0.0175;-8.2686;-6.0675;0.6981;0.1745;1.1170;
12.1070;0.0175;-8.2686;-6.0675;-0.3141;0.1920;0.3490;
12.1080;2.2184;5.9009;4.0080;-0.3141;0.1920;0.3490;
12.1670;2.2184;5.9009;4.0080;-0.3141;0.1920;0.3490;
12.1680;2.2184;5.9009;4.0080;-1.0123;0.1222;-0.2967;
12.1690;2.0426;-1.3769;1.5121;-1.0123;0.1222;-0.2967;
12.1700;2.0426;-1.3769;1.5121;-1.0123;0.1222;-0.2967;
12.2320;2.0426;-1.3769;1.5121;-1.0123;0.1222;-0.2967;
12.2340;2.0426;-1.3769;1.5121;-1.0123;0.1222;-0.2967;
12.2350;2.0426;-1.3769;1.5121;-0.9948;0.0872;-0.3665;
12.2360;1.6083;-1.2058;-0.0592;-0.9948;0.0872;-0.3665;
12.2970;1.6083;-1.2058;-0.0592;-0.9948;0.0872;-0.3665;
12.2980;1.6083;-1.2058;-0.0592;-0.9948;0.0872;-0.3665;
12.2990;1.6083;-1.2058;-0.0592;-0.6632;0.1571;-0.2269;
12.3000;-1.4366;2.0141;-0.4026;-0.6632;0.1571;-0.2269;
12.3620;-1.4366;2.0141;-0.4026;-0.6632;0.1571;-0.2269;
12.3660;-1.4366;2.0141;-0.4026;-0.6632;0.1571;-0.2269;
12.3660;-1.4366;2.0141;-0.4026;0.0000;0.3316;0.1745;
12.3670;-0.1597;0.3742;-0.1682;0.0000;0.3316;0.1745;
12.4280;-0.1597;0.3742;-0.1682;0.0000;0.3316;0.1745;
12.4300;-0.1597;0.3742;-0.1682;0.0000;0.3316;0.1745;
12.4310;-0.1597;0.3742;-0.1682;0.3316;0.4189;0.3316;
12.4320;0.3199;0.8321;0.4221;0.3316;0.4189;0.3316;
12.4940;0.3199;0.8321;0.4221;0.3316;0.4189;0.3316;
12.4960;0.3199;0.8321;0.4221;0.3316;0.4189;0.3316;
12.4970;0.3199;0.8321;0.4221;0.4887;0.4014;0.3141;
12.4970;-0.9905;-0.0828;0.4393;0.4887;0.4014;0.3141;
12.5600;-0.9905;-0.0828;0.4393;0.4887;0.4014;0.3141;
12.5620;-0.9905;-0.0828;0.4393;0.4887;0.4014;0.3141;
12.5630;-0.9905;-0.0828;0.4393;0.5061;0.2443;0.1222;
12.5630;-2.4113;-0.6068;0.7858;0.5061;0.2443;0.1222;
12.6260;-2.4113;-0.6068;0.7858;0.5061;0.2443;0.1222;
12.6280;-2.4113;-0.6068;0.7858;0.5061;0.2443;0.1222;
12.6280;-2.4113;-0.6068;0.7858;0.4363;0.0872;-0.0349;
12.6290;-0.3596;-2.7637;2.2002;0.4363;0.0872;-0.0349;
12.6920;-0.3596;-2.7637;2.2002;0.4363;0.0872;-0.0349;
12.6940;-0.3596;-2.7637;2.2002;0.4363;0.0872;-0.0349;
12.6950;-0.3596;-2.7637;2.2002;0.3840;-0.0349;-0.1745;
12.6960;2.4351;-1.5258;-1.9609;0.3840;-0.0349;-0.1745;
12.7580;2.4351;-1.5258;-1.9609;0.3840;-0.0349;-0.1745;
12.7600;2.4351;-1.5258;-1.9609;0.3840;-0.0349;-0.1745;
12.7610;2.4351;-1.5258;-1.9609;0.3316;-0.1222;-0.2618;
12.7620;3.7065;-2.6077;3.8021;0.3316;-0.1222;-0.2618;
12.8270;3.7065;-2.6077;3.8021;0.3316;-0.1222;-0.2618;
12.8300;3.7065;-2.6077;3.8021;0.3316;-0.1222;-0.2618;
12.8330;3.7065;-2.6077;3.8021;0.2792;-0.1571;-0.2443;
12.8350;-1.0265;-1.4544;-1.7378;0.2792;-0.1571;-0.2443;
12.8970;-1.0265;-1.4544;-1.7378;0.2792;-0.1571;-0.2443;
12.8990;-1.0265;-1.4544;-1.7378;0.2792;-0.1571;-0.2443;
12.9000;-1.0265;-1.4544;-1.7378;0.2094;-0.1222;-0.0698;
12.9020;-0.2349;3.2041;0.4447;0.2094;-0.1222;-0.0698;
12.9570;-0.2349;3.2041;0.4447;0.2094;-0.1222;-0.0698;
12.9590;-0.2349;3.2041;0.4447;0.2094;-0.1222;-0.0698;
12.9610;-0.2349;3.2041;0.4447;0.1222;-0.0524;0.2094;
12.9620;1.7639;3.8733;0.1997;0.1222;-0.0524;0.2094;
13.0230;1.7639;3.8733;0.1997;0.1222;-0.0524;0.2094;
13.0250;1.7639;3.8733;0.1997;0.1222;-0.0524;0.2094;
13.0260;1.7639;3.8733;0.1997;0.0349;0.0000;0.4363;
13.0280;2.5025;3.9993;-1.1606;0.0349;0.0000;0.4363;
13.0890;2.5025;3.9993;-1.1606;0.0349;0.0000;0.4363;
13.1030;2.5025;3.9993;-1.1606;0.0349;0.0000;0.4363;
13.1050;2.5025;3.9993;-1.1606;-0.0174;0.0000;0.4363;
13.1150;-7.5038;-5.3233;-8.6225;-0.0174;0.0000;0.4363;
13.1540;-7.5038;-5.3233;-8.6225;-0.0174;0.0000;0.4363;
13.1560;-7.5038;-5.3233;-8.6225;-0.0174;0.0000;0.4363;
13.1580;-7.5038;-5.3233;-8.6225;-0.1745;-0.0524;0.2094;
13.1590;-1.2774;2.6464;0.9759;-0.1745;-0.0524;0.2094;
13.2200;-1.2774;2.6464;0.9759;-0.1745;-0.0524;0.2094;
13.2220;-1.2774;2.6464;0.9759;-0.1745;-0.0524;0.2094;
13.2230;-1.2774;2.6464;0.9759;-0.4189;-0.1571;-0.0698;
13.2240;2.4300;-4.7984;-4.8900;-0.4189;-0.1571;-0.0698;
13.2860;2.4300;-4.7984;-4.8900;-0.4189;-0.1571;-0.0698;
13.2880;2.4300;-4.7984;-4.8900;-0.4189;-0.1571;-0.0698;
13.2890;2.4300;-4.7984;-4.8900;-0.6981;-0.2443;-0.3665;
13.2900;1.7610;5.9146;5.5339;-0.6981;-0.2443;-0.3665;
13.3520;1.7610;5.9146;5.5339;-0.6981;-0.2443;-0.3665;
13.3540;1.7610;5.9146;5.5339;-0.6981;-0.2443;-0.3665;
13.3560;1.7610;5.9146;5.5339;-0.8028;-0.2618;-0.6108;
13.3580;3.1445;-1.6178;1.6760;-0.8028;-0.2618;-0.6108;
13.4190;3.1445;-1.6178;1.6760;-0.8028;-0.2618;-0.6108;
13.4210;3.1445;-1.6178;1.6760;-0.8028;-0.2618;-0.6108;
13.4220;3.1445;-1.6178;1.6760;-0.7156;-0.1571;-0.5934;
13.4240;-2.4282;2.1395;-1.8001;-0.7156;-0.1571;-0.5934;
13.4840;-2.4282;2.1395;-1.8001;-0.7156;-0.1571;-0.5934;
13.4870;-2.4282;2.1395;-1.8001;-0.7156;-0.1571;-0.5934;
13.4880;-2.4282;2.1395;-1.8001;-0.3316;0.0000;-0.2967;
13.4900;2.2664;-0.7857;4.6920;-0.3316;0.0000;-0.2967;
13.5500;2.2664;-0.7857;4.6920;-0.3316;0.0000;-0.2967;
13.5520;2.2664;-0.7857;4.6920;-0.3316;0.0000;-0.2967;
13.5530;2.2664;-0.7857;4.6920;0.1047;0.1920;0.0872;
13.5540;-0.9836;1.0958;-2.7063;0.1047;0.1920;0.0872;
13.6160;-0.9836;1.0958;-2.7063;0.1047;0.1920;0.0872;
13.6180;-0.9836;1.0958;-2.7063;0.1047;0.1920;0.0872;
13.6190;-0.9836;1.0958;-2.7063;0.4712;0.3141;0.3141;
13.6210;-0.5381;-0.1287;1.2745;0.4712;0.3141;0.3141;
13.6820;-0.5381;-0.1287;1.2745;0.4712;0.3141;0.3141;
13.6840;-0.5381;-0.1287;1.2745;0.4712;0.3141;0.3141;
13.6850;-0.5381;-0.1287;1.2745;0.6458;0.3141;0.3490;
13.6870;-1.1837;-1.0959;1.1089;0.6458;0.3141;0.3490;
13.7500;-1.1837;-1.0959;1.1089;0.6458;0.3141;0.3490;
13.7510;-1.1837;-1.0959;1.1089;0.6458;0.3141;0.3490;
13.7530;-1.1837;-1.0959;1.1089;0.6458;0.2269;0.2618;
13.7540;-0.6005;-1.4060;0.0019;0.6458;0.2269;0.2618;
13.8150;-0.6005;-1.4060;0.0019;0.6458;0.2269;0.2618;
13.8420;-0.6005;-1.4060;0.0019;0.6458;0.2269;0.2618;
13.8440;-0.6005;-1.4060;0.0019;0.4887;0.0174;0.1222;
13.8480;-1.0501;-0.3183;1.1582;0.4887;0.0174;0.1222;
13.8800;-1.0501;-0.3183;1.1582;0.4887;0.0174;0.1222;
13.9070;-1.0501;-0.3183;1.1582;0.4887;0.0174;0.1222;
13.9090;-1.0501;-0.3183;1.1582;0.3490;-0.1571;0.0000;
13.9100;1.8343;-2.1601;-0.5435;0.3490;-0.1571;0.0000;
13.9460;1.8343;-2.1601;-0.5435;0.3490;-0.1571;0.0000;
13.9480;1.8343;-2.1601;-0.5435;0.3490;-0.1571;0.0000;
13.9490;1.8343;-2.1601;-0.5435;0.2443;-0.2792;-0.1222;
13.9500;1.1904;-2.7603;3.2881;0.2443;-0.2792;-0.1222;
14.0120;1.1904;-2.7603;3.2881;0.2443;-0.2792;-0.1222;
14.0140;1.1904;-2.7603;3.2881;0.2443;-0.2792;-0.1222;
14.0150;1.1904;-2.7603;3.2881;-0.2792;-0.2967;-0.7505;
14.0160;-1.0459;0.8584;-1.1227;-0.2792;-0.2967;-0.7505;
14.0780;-1.0459;0.8584;-1.1227;-0.2792;-0.2967;-0.7505;
14.0800;-1.0459;0.8584;-1.1227;-0.2792;-0.2967;-0.7505;
14.0810;-1.0459;0.8584;-1.1227;-1.2915;-0.2269;-1.8674;
14.0820;0.6434;2.3311;0.6021;-1.2915;-0.2269;-1.8674;
14.1440;0.6434;2.3311;0.6021;-1.2915;-0.2269;-1.8674;
14.1460;0.6434;2.3311;0.6021;-1.2915;-0.2269;-1.8674;
14.1470;0.6434;2.3311;0.6021;-1.3613;-0.1571;-1.8674;
14.1480;3.3573;4.1566;0.4951;-1.3613;-0.1571;-1.8674;
14.2100;3.3573;4.1566;0.4951;-1.3613;-0.1571;-1.8674;
14.2150;3.3573;4.1566;0.4951;-1.3613;-0.1571;-1.8674;
14.2160;3.3573;4.1566;0.4951;-0.9599;-0.1396;-1.3089;
14.2160;0.5046;0.2516;-3.7308;-0.9599;-0.1396;-1.3089;
14.2760;0.5046;0.2516;-3.7308;-0.9599;-0.1396;-1.3089;
14.2790;0.5046;0.2516;-3.7308;-0.9599;-0.1396;-1.3089;
14.2790;0.5046;0.2516;-3.7308;0.7679;-0.1396;0.7854;
14.2810;-5.2303;-1.6211;-3.2450;0.7679;-0.1396;0.7854;
14.3420;-5.2303;-1.6211;-3.2450;0.7679;-0.1396;0.7854;
14.3440;-5.2303;-1.6211;-3.2450;0.7679;-0.1396;0.7854;
14.3450;-5.2303;-1.6211;-3.2450;1.0821;-0.0698;1.3962;
14.3450;-0.4024;2.5764;0.9680;1.0821;-0.0698;1.3962;
14.4080;-0.4024;2.5764;0.9680;1.0821;-0.0698;1.3962;
14.4100;-0.4024;2.5764;0.9680;1.0821;-0.0698;1.3962;
14.4110;-0.4024;2.5764;0.9680;0.6981;0.0000;1.4835;
14.4110;1.3573;-0.8097;-0.5559;0.6981;0.0000;1.4835;
14.4740;1.3573;-0.8097;-0.5559;0.6981;0.0000;1.4835;
14.4760;1.3573;-0.8097;-0.5559;0.6981;0.0000;1.4835;
14.4770;1.3573;-0.8097;-0.5559;-0.4538;0.0000;0.3840;
14.4770;1.9126;3.2395;2.5525;-0.4538;0.0000;0.3840;
14.5400;1.9126;3.2395;2.5525;-0.4538;0.0000;0.3840;
14.5420;1.9126;3.2395;2.5525;-0.4538;0.0000;0.3840;
14.5430;1.9126;3.2395;2.5525;-0.9599;0.0000;-0.2094;
14.5430;1.8705;-1.0524;0.4874;-0.9599;0.0000;-0.2094;
14.6060;1.8705;-1.0524;0.4874;-0.9599;0.0000;-0.2094;
14.6080;1.8705;-1.0524;0.4874;-0.9599;0.0000;-0.2094;
14.6090;1.8705;-1.0524;0.4874;-0.7854;0.0349;-0.2094;
14.6090;-2.0543;1.3620;0.0054;-0.7854;0.0349;-0.2094;
14.6720;-2.0543;1.3620;0.0054;-0.7854;0.0349;-0.2094;
14.6780;-2.0543;1.3620;0.0054;-0.7854;0.0349;-0.2094;
14.6790;-2.0543;1.3620;0.0054;-0.1571;0.1920;0.0524;
14.6790;1.6999;-0.3565;3.8323;-0.1571;0.1920;0.0524;
14.7380;1.6999;-0.3565;3.8323;-0.1571;0.1920;0.0524;
14.7400;1.6999;-0.3565;3.8323;-0.1571;0.1920;0.0524;
14.7410;1.6999;-0.3565;3.8323;0.2443;0.2967;0.2443;
14.7420;-0.6168;-0.1424;-3.3100;0.2443;0.2967;0.2443;
14.8290;-0.6168;-0.1424;-3.3100;0.2443;0.2967;0.2443;
14.8290;-0.6168;-0.1424;-3.3100;0.2443;0.2967;0.2443;
14.8300;-0.6168;-0.1424;-3.3100;0.4887;0.2967;0.2269;
14.8310;-0.0955;-0.8134;1.7192;0.4887;0.2967;0.2269;
14.8700;-0.0955;-0.8134;1.7192;0.4887;0.2967;0.2269;
14.8720;-0.0955;-0.8134;1.7192;0.4887;0.2967;0.2269;
14.8720;-0.0955;-0.8134;1.7192;0.5585;0.2094;0.0872;
14.8730;-2.5240;-0.3355;0.8544;0.5585;0.2094;0.0872;
14.9370;-2.5240;-0.3355;0.8544;0.5585;0.2094;0.0872;
14.9380;-2.5240;-0.3355;0.8544;0.5585;0.2094;0.0872;
14.9390;-2.5240;-0.3355;0.8544;0.5585;0.0349;-0.0174;
14.9400;-3.8083;-1.3759;-0.0816;0.5585;0.0349;-0.0174;
15.0020;-3.8083;-1.3759;-0.0816;0.5585;0.0349;-0.0174;
15.0050;-3.8083;-1.3759;-0.0816;0.5585;0.0349;-0.0174;
15.0060;-3.8083;-1.3759;-0.0816;0.4538;-0.1222;-0.0698;
15.0070;-0.2852;-1.5259;2.1416;0.4538;-0.1222;-0.0698;
15.0780;-0.2852;-1.5259;2.1416;0.4538;-0.1222;-0.0698;
15.0810;-0.2852;-1.5259;2.1416;0.4538;-0.1222;-0.0698;
15.0830;-0.2852;-1.5259;2.1416;0.3840;-0.2792;-0.1396;
15.0880;5.2776;-4.8555;1.3318;0.3840;-0.2792;-0.1396;
15.1350;5.2776;-4.8555;1.3318;0.3840;-0.2792;-0.1396;
15.1360;5.2776;-4.8555;1.3318;0.3840;-0.2792;-0.1396;
15.1370;5.2776;-4.8555;1.3318;0.2967;-0.3665;-0.2967;
15.1390;1.5474;-0.4252;0.7562;0.2967;-0.3665;-0.2967;
15.2000;1.5474;-0.4252;0.7562;0.2967;-0.3665;-0.2967;
15.2030;1.5474;-0.4252;0.7562;0.2967;-0.3665;-0.2967;
15.2040;1.5474;-0.4252;0.7562;-0.2094;-0.3490;-0.8901;
15.2050;-1.5306;1.0574;-1.5335;-0.2094;-0.3490;-0.8901;
15.2670;-1.5306;1.0574;-1.5335;-0.2094;-0.3490;-0.8901;
15.2690;-1.5306;1.0574;-1.5335;-0.2094;-0.3490;-0.8901;
15.2700;-1.5306;1.0574;-1.5335;-1.2042;-0.2618;-1.9198;
15.2720;0.6985;3.5753;0.3046;-1.2042;-0.2618;-1.9198;
15.3330;0.6985;3.5753;0.3046;-1.2042;-0.2618;-1.9198;
15.3350;0.6985;3.5753;0.3046;-1.2042;-0.2618;-1.9198;
15.3370;0.6985;3.5753;0.3046;-1.2566;-0.2618;-1.9722;
15.3380;2.4216;4.6621;0.2744;-1.2566;-0.2618;-1.9722;
15.3990;2.4216;4.6621;0.2744;-1.2566;-0.2618;-1.9722;
15.4010;2.4216;4.6621;0.2744;-1.2566;-0.2618;-1.9722;
15.4020;2.4216;4.6621;0.2744;-0.9075;-0.2792;-1.4311;
15.4040;-6.3197;-4.9896;-9.2175;-0.9075;-0.2792;-1.4311;
15.4640;-6.3197;-4.9896;-9.2175;-0.9075;-0.2792;-1.4311;
15.4660;-6.3197;-4.9896;-9.2175;-0.9075;-0.2792;-1.4311;
15.4670;-6.3197;-4.9896;-9.2175;0.6108;-0.2618;0.4189;
15.4680;-1.8937;2.3030;-1.5004;0.6108;-0.2618;0.4189;
15.5850;-1.8937;2.3030;-1.5004;0.6108;-0.2618;0.4189;
15.5860;-1.8937;2.3030;-1.5004;0.7330;-0.1745;0.8901;
15.5870;-0.9614;-3.5925;0.8258;0.7330;-0.1745;0.8901;
15.5880;-0.9614;-3.5925;0.8258;0.7330;-0.1745;0.8901;
15.6010;-0.9614;-3.5925;0.8258;0.7330;-0.1745;0.8901;
15.6020;-0.9614;-3.5925;0.8258;0.5759;-0.0872;0.9599;
15.6040;2.0229;4.5889;5.6082;0.5759;-0.0872;0.9599;
15.6050;2.0229;4.5889;5.6082;0.5759;-0.0872;0.9599;
15.6620;2.0229;4.5889;5.6082;0.5759;-0.0872;0.9599;
15.6640;2.0229;4.5889;5.6082;0.5759;-0.0872;0.9599;
15.6650;2.0229;4.5889;5.6082;-0.2618;-0.0524;0.3316;
15.6660;1.6997;-1.0491;0.8270;-0.2618;-0.0524;0.3316;
15.7280;1.6997;-1.0491;0.8270;-0.2618;-0.0524;0.3316;
15.7300;1.6997;-1.0491;0.8270;-0.2618;-0.0524;0.3316;
15.7310;1.6997;-1.0491;0.8270;-0.9424;0.0174;-0.4712;
15.7320;-0.6075;0.7541;-1.5209;-0.9424;0.0174;-0.4712;
15.7940;-0.6075;0.7541;-1.5209;-0.9424;0.0174;-0.4712;
15.7960;-0.6075;0.7541;-1.5209;-0.9424;0.0174;-0.4712;
15.7970;-0.6075;0.7541;-1.5209;-0.7330;0.1745;-0.3840;
15.7980;0.3841;1.3791;3.5305;-0.7330;0.1745;-0.3840;
15.8610;0.3841;1.3791;3.5305;-0.7330;0.1745;-0.3840;
15.8630;0.3841;1.3791;3.5305;-0.7330;0.1745;-0.3840;
15.8650;0.3841;1.3791;3.5305;0.0349;0.4538;0.0349;
15.8660;-2.7946;0.8146;-1.4834;0.0349;0.4538;0.0349;
15.9270;-2.7946;0.8146;-1.4834;0.0349;0.4538;0.0349;
15.9290;-2.7946;0.8146;-1.4834;0.0349;0.4538;0.0349;
15.9300;-2.7946;0.8146;-1.4834;0.4014;0.5061;0.2269;
15.9320;1.2630;-0.0361;3.0410;0.4014;0.5061;0.2269;
15.9930;1.2630;-0.0361;3.0410;0.4014;0.5061;0.2269;
15.9960;1.2630;-0.0361;3.0410;0.4014;0.5061;0.2269;
15.9970;1.2630;-0.0361;3.0410;0.5061;0.4363;0.2269;
15.9980;-1.3758;-1.5589;0.6918;0.5061;0.4363;0.2269;
16.0580;-1.3758;-1.5589;0.6918;0.5061;0.4363;0.2269;
16.0600;-1.3758;-1.5589;0.6918;0.5061;0.4363;0.2269;
16.0610;-1.3758;-1.5589;0.6918;0.5061;0.2792;0.1396;
16.0620;-2.3568;-0.1717;0.2534;0.5061;0.2792;0.1396;
16.1240;-2.3568;-0.1717;0.2534;0.5061;0.2792;0.1396;
16.1260;-2.3568;-0.1717;0.2534;0.5061;0.2792;0.1396;
16.1270;-2.3568;-0.1717;0.2534;0.4189;0.0872;0.0349;
16.1280;-0.6884;-2.4683;1.7293;0.4189;0.0872;0.0349;
16.1900;-0.6884;-2.4683;1.7293;0.4189;0.0872;0.0349;
16.1920;-0.6884;-2.4683;1.7293;0.4189;0.0872;0.0349;
16.1930;-0.6884;-2.4683;1.7293;0.3665;-0.0872;-0.1047;
16.1940;2.2289;-2.2115;-0.7045;0.3665;-0.0872;-0.1047;
16.2560;2.2289;-2.2115;-0.7045;0.3665;-0.0872;-0.1047;
16.2580;2.2289;-2.2115;-0.7045;0.3665;-0.0872;-0.1047;
16.2590;2.2289;-2.2115;-0.7045;-1.1344;-0.1047;-2.0594;
16.2600;2.8138;-2.6355;2.6821;-1.1344;-0.1047;-2.0594;
16.3220;2.8138;-2.6355;2.6821;-1.1344;-0.1047;-2.0594;
16.3260;2.8138;-2.6355;2.6821;-1.1344;-0.1047;-2.0594;
16.3270;2.8138;-2.6355;2.6821;-1.2217;-0.0872;-2.0594;
16.3280;-2.0323;0.6352;-1.4812;-1.2217;-0.0872;-2.0594;
16.3910;-2.0323;0.6352;-1.4812;-1.2217;-0.0872;-2.0594;
16.3910;-2.0323;0.6352;-1.4812;-1.2740;-0.0698;-2.0769;
16.3920;-0.8664;2.2103;0.5118;-1.2740;-0.0698;-2.0769;
16.3940;-0.8664;2.2103;0.5118;-1.2740;-0.0698;-2.0769;
16.4550;-0.8664;2.2103;0.5118;-1.2740;-0.0698;-2.0769;
16.4560;-0.8664;2.2103;0.5118;-1.2740;-0.0698;-2.0769;
16.4570;-0.8664;2.2103;0.5118;-0.0698;-0.2094;-0.3665;
16.4580;3.6149;3.2810;0.4335;-0.0698;-0.2094;-0.3665;
16.5220;3.6149;3.2810;0.4335;-0.0698;-0.2094;-0.3665;
16.5230;3.6149;3.2810;0.4335;-0.0698;-0.2094;-0.3665;
16.5240;3.6149;3.2810;0.4335;-0.0698;-0.2792;-0.3665;
16.5250;2.3262;2.7441;-0.3458;-0.0698;-0.2792;-0.3665;
16.5880;2.3262;2.7441;-0.3458;-0.0698;-0.2792;-0.3665;
16.5890;2.3262;2.7441;-0.3458;-0.0698;-0.2792;-0.3665;
16.5900;2.3262;2.7441;-0.3458;0.6283;-0.2618;0.6632;
16.5900;-9.0363;-3.1755;-5.9671;0.6283;-0.2618;0.6632;
16.6530;-9.0363;-3.1755;-5.9671;0.6283;-0.2618;0.6632;
16.6540;-9.0363;-3.1755;-5.9671;0.6283;-0.2618;0.6632;
16.6560;-9.0363;-3.1755;-5.9671;0.9250;-0.1047;1.3962;
16.6570;-0.9847;-0.2196;1.5968;0.9250;-0.1047;1.3962;
16.7220;-0.9847;-0.2196;1.5968;0.9250;-0.1047;1.3962;
16.7230;-0.9847;-0.2196;1.5968;0.9250;-0.1047;1.3962;
16.7240;-0.9847;-0.2196;1.5968;0.6981;-0.0698;1.3962;
16.7260;0.4114;-0.1563;0.9380;0.6981;-0.0698;1.3962;
16.7840;0.4114;-0.1563;0.9380;0.6981;-0.0698;1.3962;
16.7860;0.4114;-0.1563;0.9380;0.6981;-0.0698;1.3962;
16.7860;0.4114;-0.1563;0.9380;-0.3490;-0.1222;0.2269;
16.7870;1.2727;2.7877;3.4409;-0.3490;-0.1222;0.2269;
16.8510;1.2727;2.7877;3.4409;-0.3490;-0.1222;0.2269;
16.8520;1.2727;2.7877;3.4409;-0.3490;-0.1222;0.2269;
16.8530;1.2727;2.7877;3.4409;-0.8552;-0.2094;-0.5061;
16.8540;1.3391;-0.5040;1.1185;-0.8552;-0.2094;-0.5061;
16.9160;1.3391;-0.5040;1.1185;-0.8552;-0.2094;-0.5061;
16.9180;1.3391;-0.5040;1.1185;-0.8552;-0.2094;-0.5061;
16.9190;1.3391;-0.5040;1.1185;-0.5061;-0.1745;-0.5061;
16.9200;-1.1860;2.1456;-0.5060;-0.5061;-0.1745;-0.5061;
16.9820;-1.1860;2.1456;-0.5060;-0.5061;-0.1745;-0.5061;
16.9840;-1.1860;2.1456;-0.5060;-0.5061;-0.1745;-0.5061;
16.9850;-1.1860;2.1456;-0.5060;0.0174;-0.0524;-0.2094;
16.9860;1.8663;-0.7586;2.1644;0.0174;-0.0524;-0.2094;
17.0480;1.8663;-0.7586;2.1644;0.0174;-0.0524;-0.2094;
17.0500;1.8663;-0.7586;2.1644;0.0174;-0.0524;-0.2094;
17.0530;1.8663;-0.7586;2.1644;0.4712;0.0524;0.0872;
17.0600;0.4481;0.6459;-3.5668;0.4712;0.0524;0.0872;
17.1310;0.4481;0.6459;-3.5668;0.4712;0.0524;0.0872;
17.1320;0.4481;0.6459;-3.5668;0.4712;0.0524;0.0872;
17.1330;0.4481;0.6459;-3.5668;0.6632;0.0872;0.2094;
17.1340;-1.0273;0.3637;3.5795;0.6632;0.0872;0.2094;
17.1800;-1.0273;0.3637;3.5795;0.6632;0.0872;0.2094;
17.1820;-1.0273;0.3637;3.5795;0.6632;0.0872;0.2094;
17.1830;-1.0273;0.3637;3.5795;0.6806;0.0524;0.2094;
17.1840;-2.7759;-0.2459;0.7354;0.6806;0.0524;0.2094;
17.2470;-2.7759;-0.2459;0.7354;0.6806;0.0524;0.2094;
17.2490;-2.7759;-0.2459;0.7354;0.6806;0.0524;0.2094;
17.2500;-2.7759;-0.2459;0.7354;0.5934;-0.0698;0.1396;
17.2520;-3.8396;-1.3781;0.1142;0.5934;-0.0698;0.1396;
17.3130;-3.8396;-1.3781;0.1142;0.5934;-0.0698;0.1396;
17.3150;-3.8396;-1.3781;0.1142;0.5934;-0.0698;0.1396;
17.3170;-3.8396;-1.3781;0.1142;0.4363;-0.2269;0.0174;
17.3180;-0.2235;-0.4678;1.2438;0.4363;-0.2269;0.0174;
17.3780;-0.2235;-0.4678;1.2438;0.4363;-0.2269;0.0174;
17.3810;-0.2235;-0.4678;1.2438;0.4363;-0.2269;0.0174;
17.3820;-0.2235;-0.4678;1.2438;0.3141;-0.4014;-0.1222;
17.3830;4.8119;-5.7622;3.3824;0.3141;-0.4014;-0.1222;
17.4440;4.8119;-5.7622;3.3824;0.3141;-0.4014;-0.1222;
17.4460;4.8119;-5.7622;3.3824;0.3141;-0.4014;-0.1222;
17.4470;4.8119;-5.7622;3.3824;0.1920;-0.4712;-0.2618;
17.4480;-1.0332;1.4958;-1.7695;0.1920;-0.4712;-0.2618;
17.5110;-1.0332;1.4958;-1.7695;0.1920;-0.4712;-0.2618;
17.5120;-1.0332;1.4958;-1.7695;0.1920;-0.4712;-0.2618;
17.5130;-1.0332;1.4958;-1.7695;-0.3840;-0.4189;-0.7505;
17.5140;-0.2233;2.7305;0.2163;-0.3840;-0.4189;-0.7505;
17.5760;-0.2233;2.7305;0.2163;-0.3840;-0.4189;-0.7505;
17.5780;-0.2233;2.7305;0.2163;-0.3840;-0.4189;-0.7505;
17.5800;-0.2233;2.7305;0.2163;-1.3613;-0.2967;-1.5184;
17.5810;2.5209;3.1863;0.1979;-1.3613;-0.2967;-1.5184;
17.6430;2.5209;3.1863;0.1979;-1.3613;-0.2967;-1.5184;
17.6450;2.5209;3.1863;0.1979;-1.3613;-0.2967;-1.5184;
17.6460;2.5209;3.1863;0.1979;-1.3962;-0.2618;-1.5184;
17.6480;2.9794;3.6385;-1.3055;-1.3962;-0.2618;-1.5184;
17.7090;2.9794;3.6385;-1.3055;-1.3962;-0.2618;-1.5184;
17.7110;2.9794;3.6385;-1.3055;-1.3962;-0.2618;-1.5184;
17.7120;2.9794;3.6385;-1.3055;-0.6108;-0.1745;-0.7156;
17.7140;-7.4940;-5.1469;-8.9194;-0.6108;-0.1745;-0.7156;
17.7750;-7.4940;-5.1469;-8.9194;-0.6108;-0.1745;-0.7156;
17.7770;-7.4940;-5.1469;-8.9194;-0.6108;-0.1745;-0.7156;
17.7780;-7.4940;-5.1469;-8.9194;1.0995;-0.1396;1.0472;
17.7800;-4.8304;0.2437;-0.8266;1.0995;-0.1396;1.0472;
17.8410;-4.8304;0.2437;-0.8266;1.0995;-0.1396;1.0472;
17.8440;-4.8304;0.2437;-0.8266;1.0995;-0.1396;1.0472;
17.8450;-4.8304;0.2437;-0.8266;1.0123;-0.0174;1.1519;
17.8470;4.2849;-1.0477;-3.0717;1.0123;-0.0174;1.1519;
17.9070;4.2849;-1.0477;-3.0717;1.0123;-0.0174;1.1519;
17.9090;4.2849;-1.0477;-3.0717;1.0123;-0.0174;1.1519;
17.9100;4.2849;-1.0477;-3.0717;-0.2792;-0.0174;0.2443;
17.9120;2.6755;1.9887;3.6639;-0.2792;-0.0174;0.2443;
18.0870;2.6755;1.9887;3.6639;-0.2792;-0.0174;0.2443;
18.0890;2.6755;1.9887;3.6639;-0.4538;0.0698;-0.1745;
18.0900;2.6755;1.9887;3.6639;-0.4538;0.0698;-0.1745;
18.1000;2.6755;1.9887;3.6639;-0.4538;0.0698;-0.1745;
18.1010;0.2009;1.1742;5.2681;-0.4538;0.0698;-0.1745;
18.1020;0.2009;1.1742;5.2681;-0.4538;0.0698;-0.1745;
18.1030;0.2009;1.1742;5.2681;-0.4538;0.0698;-0.1745;
18.1040;0.2009;1.1742;5.2681;-0.4538;0.0698;-0.1745;
18.1110;0.2009;1.1742;5.2681;-0.4538;0.0698;-0.1745;
18.1120;0.2009;1.1742;5.2681;-0.4538;0.0698;-0.1745;
18.1130;0.2009;1.1742;5.2681;-0.4538;0.0698;-0.1745;
18.1140;0.2009;1.1742;5.2681;-0.2792;0.1222;-0.0349;
18.1150;-1.0650;0.7573;2.1812;-0.2792;0.1222;-0.0349;
18.1700;-1.0650;0.7573;2.1812;-0.2792;0.1222;-0.0349;
18.1720;-1.0650;0.7573;2.1812;-0.2792;0.1222;-0.0349;
18.1730;-1.0650;0.7573;2.1812;0.1920;0.3141;0.3316;
18.1740;1.4233;0.0453;-2.1788;0.1920;0.3141;0.3316;
18.2360;1.4233;0.0453;-2.1788;0.1920;0.3141;0.3316;
18.2380;1.4233;0.0453;-2.1788;0.1920;0.3141;0.3316;
18.2390;1.4233;0.0453;-2.1788;0.5585;0.4538;0.5061;
18.2400;-0.5610;-1.4001;-0.7658;0.5585;0.4538;0.5061;
18.3020;-0.5610;-1.4001;-0.7658;0.5585;0.4538;0.5061;
18.3050;-0.5610;-1.4001;-0.7658;0.5585;0.4538;0.5061;
18.3060;-0.5610;-1.4001;-0.7658;0.6108;0.4363;0.3665;
18.3060;-3.4028;-0.2325;0.8816;0.6108;0.4363;0.3665;
18.3680;-3.4028;-0.2325;0.8816;0.6108;0.4363;0.3665;
18.3750;-3.4028;-0.2325;0.8816;0.6108;0.4363;0.3665;
18.3760;-3.4028;-0.2325;0.8816;0.5585;0.2792;0.1571;
18.3770;-3.1516;-1.2295;-0.2802;0.5585;0.2792;0.1571;
18.4380;-3.1516;-1.2295;-0.2802;0.5585;0.2792;0.1571;
18.4390;-3.1516;-1.2295;-0.2802;0.5585;0.2792;0.1571;
18.4400;-3.1516;-1.2295;-0.2802;-0.0349;0.0000;-0.5236;
18.4410;2.4388;-2.3541;0.0540;-0.0349;0.0000;-0.5236;
18.5030;2.4388;-2.3541;0.0540;-0.0349;0.0000;-0.5236;
18.5030;2.4388;-2.3541;0.0540;-1.0646;-0.0174;-1.4137;
18.5050;4.3378;-3.8343;2.6912;-1.0646;-0.0174;-1.4137;
18.5060;4.3378;-3.8343;2.6912;-1.0646;-0.0174;-1.4137;
18.5690;4.3378;-3.8343;2.6912;-1.0646;-0.0174;-1.4137;
18.5700;4.3378;-3.8343;2.6912;-1.1693;0.0000;-1.3439;
18.5710;-0.9474;0.6378;-1.0953;-1.1693;0.0000;-1.3439;
18.5720;-0.9474;0.6378;-1.0953;-1.1693;0.0000;-1.3439;
18.6440;-0.9474;0.6378;-1.0953;-1.1693;0.0000;-1.3439;
18.6450;-0.9474;0.6378;-1.0953;-1.1693;0.0000;-1.3439;
18.6470;-0.9474;0.6378;-1.0953;-1.2042;0.0174;-1.3089;
18.6480;-1.0512;2.1969;-0.7992;-1.2042;0.0174;-1.3089;
18.6990;-1.0512;2.1969;-0.7992;-1.2042;0.0174;-1.3089;
18.7010;-1.0512;2.1969;-0.7992;-1.2042;0.0174;-1.3089;
18.7020;-1.0512;2.1969;-0.7992;-0.0174;-0.0872;-0.2094;
18.7040;2.0246;2.2163;0.6137;-0.0174;-0.0872;-0.2094;
18.7780;2.0246;2.2163;0.6137;-0.0174;-0.0872;-0.2094;
18.7790;2.0246;2.2163;0.6137;-0.0174;-0.2792;-0.2094;
18.7800;4.1432;4.0814;-0.2746;-0.0174;-0.2792;-0.2094;
18.7810;4.1432;4.0814;-0.2746;-0.0174;-0.2792;-0.2094;
18.8300;4.1432;4.0814;-0.2746;-0.0174;-0.2792;-0.2094;
18.8330;4.1432;4.0814;-0.2746;-0.0174;-0.2792;-0.2094;
18.8340;4.1432;4.0814;-0.2746;0.6108;-0.2967;0.3316;
18.8350;-5.3520;-2.5173;-8.8187;0.6108;-0.2967;0.3316;
18.9040;-5.3520;-2.5173;-8.8187;0.6108;-0.2967;0.3316;
18.9050;-5.3520;-2.5173;-8.8187;0.6108;-0.2967;0.3316;
18.9070;-5.3520;-2.5173;-8.8187;0.8552;-0.1571;0.8377;
18.9080;-3.7970;2.5922;-0.9904;0.8552;-0.1571;0.8377;
18.9630;-3.7970;2.5922;-0.9904;0.8552;-0.1571;0.8377;
18.9650;-3.7970;2.5922;-0.9904;0.8552;-0.1571;0.8377;
18.9660;-3.7970;2.5922;-0.9904;0.6458;0.0174;1.0472;
18.9680;1.3690;-6.7368;-5.0017;0.6458;0.0174;1.0472;
19.0360;1.3690;-6.7368;-5.0017;0.6458;0.0174;1.0472;
19.0380;1.3690;-6.7368;-5.0017;0.6458;0.0174;1.0472;
19.0390;1.3690;-6.7368;-5.0017;0.0349;0.0174;0.5934;
19.0390;0.2232;4.2541;5.0779;0.0349;0.0174;0.5934;
19.1010;0.2232;4.2541;5.0779;0.0349;0.0174;0.5934;
19.1030;0.2232;4.2541;5.0779;0.0349;0.0174;0.5934;
19.1050;0.2232;4.2541;5.0779;-0.8552;-0.0698;-0.2967;
19.1090;1.1264;-0.4330;2.1377;-0.8552;-0.0698;-0.2967;
19.1610;1.1264;-0.4330;2.1377;-0.8552;-0.0698;-0.2967;
19.1630;1.1264;-0.4330;2.1377;-0.8552;-0.0698;-0.2967;
19.1640;1.1264;-0.4330;2.1377;-0.8028;-0.0872;-0.4014;
19.1660;-0.5541;2.2531;-1.2878;-0.8028;-0.0872;-0.4014;
19.2270;-0.5541;2.2531;-1.2878;-0.8028;-0.0872;-0.4014;
19.2290;-0.5541;2.2531;-1.2878;-0.8028;-0.0872;-0.4014;
19.2300;-0.5541;2.2531;-1.2878;-0.4538;0.0349;-0.2967;
19.2320;-0.4084;0.2903;3.6001;-0.4538;0.0349;-0.2967;
19.2980;-0.4084;0.2903;3.6001;-0.4538;0.0349;-0.2967;
19.2990;-0.4084;0.2903;3.6001;0.0000;0.2269;-0.0349;
19.3000;0.4612;0.1086;-1.1400;0.0000;0.2269;-0.0349;
19.3010;0.4612;0.1086;-1.1400;0.0000;0.2269;-0.0349;
19.3580;0.4612;0.1086;-1.1400;0.0000;0.2269;-0.0349;
19.3600;0.4612;0.1086;-1.1400;0.0000;0.2269;-0.0349;
19.3610;0.4612;0.1086;-1.1400;0.4712;0.3665;0.1745;
19.3620;-0.9368;-1.4414;-0.2631;0.4712;0.3665;0.1745;
19.4240;-0.9368;-1.4414;-0.2631;0.4712;0.3665;0.1745;
19.4270;-0.9368;-1.4414;-0.2631;0.4712;0.3665;0.1745;
19.4280;-0.9368;-1.4414;-0.2631;0.6458;0.3665;0.1745;
19.4290;-3.8467;0.1500;1.2371;0.6458;0.3665;0.1745;
19.4900;-3.8467;0.1500;1.2371;0.6458;0.3665;0.1745;
19.4920;-3.8467;0.1500;1.2371;0.6458;0.3665;0.1745;
19.4940;-3.8467;0.1500;1.2371;0.6632;0.2443;0.0872;
19.4950;-2.7129;-1.1917;0.0796;0.6632;0.2443;0.0872;
19.5570;-2.7129;-1.1917;0.0796;0.6632;0.2443;0.0872;
19.5590;-2.7129;-1.1917;0.0796;0.6632;0.2443;0.0872;
19.5610;-2.7129;-1.1917;0.0796;0.1396;0.1222;-0.5236;
19.5620;-0.4556;-0.0878;0.8541;0.1396;0.1222;-0.5236;
19.6230;-0.4556;-0.0878;0.8541;0.1396;0.1222;-0.5236;
19.6250;-0.4556;-0.0878;0.8541;0.1396;0.1222;-0.5236;
19.6260;-0.4556;-0.0878;0.8541;-0.9773;0.0524;-1.5358;
19.6280;4.2045;-5.2724;3.0029;-0.9773;0.0524;-1.5358;
19.6890;4.2045;-5.2724;3.0029;-0.9773;0.0524;-1.5358;
19.6910;4.2045;-5.2724;3.0029;-0.9773;0.0524;-1.5358;
19.6920;4.2045;-5.2724;3.0029;-1.1344;0.1222;-1.3962;
19.6940;0.2443;-0.1883;-1.3063;-1.1344;0.1222;-1.3962;
19.7550;0.2443;-0.1883;-1.3063;-1.1344;0.1222;-1.3962;
19.7570;0.2443;-0.1883;-1.3063;-1.1344;0.1222;-1.3962;
19.7590;0.2443;-0.1883;-1.3063;-0.7854;0.1396;-0.8377;
19.7600;-0.7316;1.9456;-0.6068;-0.7854;0.1396;-0.8377;
19.8210;-0.7316;1.9456;-0.6068;-0.7854;0.1396;-0.8377;
19.8230;-0.7316;1.9456;-0.6068;-0.7854;0.1396;-0.8377;
19.8240;-0.7316;1.9456;-0.6068;0.0000;0.0174;-0.0349;
19.8270;2.5949;2.4892;0.6522;0.0000;0.0174;-0.0349;
19.8870;2.5949;2.4892;0.6522;0.0000;0.0174;-0.0349;
19.8890;2.5949;2.4892;0.6522;0.0000;0.0174;-0.0349;
19.8900;2.5949;2.4892;0.6522;0.0000;-0.1571;-0.0349;
19.8910;4.0264;4.3587;-1.2357;0.0000;-0.1571;-0.0349;
19.9520;4.0264;4.3587;-1.2357;0.0000;-0.1571;-0.0349;
19.9540;4.0264;4.3587;-1.2357;0.0000;-0.1571;-0.0349;
19.9570;4.0264;4.3587;-1.2357;1.1693;-0.1920;1.2391;
19.9590;-3.4359;-0.8991;-6.0641;1.1693;-0.1920;1.2391;
20.0190;-3.4359;-0.8991;-6.0641;1.1693;-0.1920;1.2391;
20.0210;-3.4359;-0.8991;-6.0641;1.1693;-0.1920;1.2391;
20.0230;-3.4359;-0.8991;-6.0641;1.1344;-0.0872;1.4137;
20.0240;-6.1441;1.2766;-1.5885;1.1344;-0.0872;1.4137;
20.0880;-6.1441;1.2766;-1.5885;1.1344;-0.0872;1.4137;
20.0890;-6.1441;1.2766;-1.5885;1.1344;-0.0872;1.4137;
20.0900;-6.1441;1.2766;-1.5885;0.9250;0.1047;1.5533;
20.0910;0.7551;-7.9064;-4.2154;0.9250;0.1047;1.5533;
20.1500;0.7551;-7.9064;-4.2154;0.9250;0.1047;1.5533;
20.1520;0.7551;-7.9064;-4.2154;0.9250;0.1047;1.5533;
20.1530;0.7551;-7.9064;-4.2154;-0.7330;0.1047;0.0174;
20.1540;2.1745;5.3406;4.1516;-0.7330;0.1047;0.0174;
20.2160;2.1745;5.3406;4.1516;-0.7330;0.1047;0.0174;
20.2180;2.1745;5.3406;4.1516;-0.7330;0.1047;0.0174;
20.2190;2.1745;5.3406;4.1516;-0.9075;0.0174;-0.2792;
20.2200;3.9146;0.4423;1.5366;-0.9075;0.0174;-0.2792;
20.2820;3.9146;0.4423;1.5366;-0.9075;0.0174;-0.2792;
20.2840;3.9146;0.4423;1.5366;-0.9075;0.0174;-0.2792;
20.2850;3.9146;0.4423;1.5366;-0.8377;0.0000;-0.4887;
20.2860;0.2861;-0.7892;0.0769;-0.8377;0.0000;-0.4887;
20.3480;0.2861;-0.7892;0.0769;-0.8377;0.0000;-0.4887;
20.3510;0.2861;-0.7892;0.0769;-0.8377;0.0000;-0.4887;
20.3510;0.2861;-0.7892;0.0769;-0.2967;0.1047;-0.3316;
20.3520;-0.3028;1.1325;4.7890;-0.2967;0.1047;-0.3316;
20.4140;-0.3028;1.1325;4.7890;-0.2967;0.1047;-0.3316;
20.4160;-0.3028;1.1325;4.7890;-0.2967;0.1047;-0.3316;
20.4170;-0.3028;1.1325;4.7890;0.1920;0.2443;0.0524;
20.4180;-0.1890;-0.3650;-1.2638;0.1920;0.2443;0.0524;
20.4800;-0.1890;-0.3650;-1.2638;0.1920;0.2443;0.0524;
20.4850;-0.1890;-0.3650;-1.2638;0.1920;0.2443;0.0524;
20.4860;-0.1890;-0.3650;-1.2638;0.5585;0.3490;0.3316;
20.4870;0.7368;-0.6392;1.8515;0.5585;0.3490;0.3316;
20.5460;0.7368;-0.6392;1.8515;0.5585;0.3490;0.3316;
20.5480;0.7368;-0.6392;1.8515;0.5585;0.3490;0.3316;
20.5490;0.7368;-0.6392;1.8515;0.7330;0.3490;0.3840;
20.5490;-1.9009;-0.2957;-0.8424;0.7330;0.3490;0.3840;
20.6140;-1.9009;-0.2957;-0.8424;0.7330;0.3490;0.3840;
20.6150;-1.9009;-0.2957;-0.8424;0.2094;0.1920;-0.3316;
20.6160;-2.3578;-0.1360;0.2659;0.2094;0.1920;-0.3316;
20.6160;-2.3578;-0.1360;0.2659;0.2094;0.1920;-0.3316;
20.6920;-2.3578;-0.1360;0.2659;0.2094;0.1920;-0.3316;
20.6920;-2.3578;-0.1360;0.2659;-0.8203;0.0524;-1.4660;
20.6930;-0.6006;-2.3270;1.2623;-0.8203;0.0524;-1.4660;
20.6940;-0.6006;-2.3270;1.2623;-0.8203;0.0524;-1.4660;
20.7440;-0.6006;-2.3270;1.2623;-0.8203;0.0524;-1.4660;
20.7460;-0.6006;-2.3270;1.2623;-0.8203;0.0524;-1.4660;
20.7470;-0.6006;-2.3270;1.2623;-1.0646;-0.0524;-1.4311;
20.7490;3.0756;-4.6227;2.0389;-1.0646;-0.0524;-1.4311;
20.8190;3.0756;-4.6227;2.0389;-1.0646;-0.0524;-1.4311;
20.8200;3.0756;-4.6227;2.0389;-1.0646;-0.0524;-1.4311;
20.8210;3.0756;-4.6227;2.0389;-1.1344;-0.0698;-1.2915;
20.8220;3.7257;-1.9711;2.2735;-1.1344;-0.0698;-1.2915;
20.8760;3.7257;-1.9711;2.2735;-1.1344;-0.0698;-1.2915;
20.8780;3.7257;-1.9711;2.2735;-1.1344;-0.0698;-1.2915;
20.8790;3.7257;-1.9711;2.2735;-0.0349;-0.1745;0.2443;
20.8800;-1.0731;0.8518;-1.4388;-0.0349;-0.1745;0.2443;
20.9490;-1.0731;0.8518;-1.4388;-0.0349;-0.1745;0.2443;
20.9530;-1.0731;0.8518;-1.4388;-0.0349;-0.1745;0.2443;
20.9540;-1.0731;0.8518;-1.4388;-0.0349;-0.2618;0.1571;
20.9550;-1.0580;2.2398;-0.8572;-0.0349;-0.2618;0.1571;
21.0090;-1.0580;2.2398;-0.8572;-0.0349;-0.2618;0.1571;
21.0110;-1.0580;2.2398;-0.8572;-0.0349;-0.2618;0.1571;
21.0120;-1.0580;2.2398;-0.8572;-0.0349;-0.4887;-0.2967;
21.0140;2.6793;4.3757;-0.4604;-0.0349;-0.4887;-0.2967;
21.0830;2.6793;4.3757;-0.4604;-0.0349;-0.4887;-0.2967;
21.0840;2.6793;4.3757;-0.4604;-0.0349;-0.4887;-0.2967;
21.0860;2.6793;4.3757;-0.4604;-0.0698;-0.5585;-0.3840;
21.0870;2.2902;3.9535;-0.7205;-0.0698;-0.5585;-0.3840;
21.1400;2.2902;3.9535;-0.7205;-0.0698;-0.5585;-0.3840;
21.1420;2.2902;3.9535;-0.7205;-0.0698;-0.5585;-0.3840;
21.1430;2.2902;3.9535;-0.7205;0.7330;-0.4363;0.4887;
21.1440;-6.6984;0.2488;-4.3580;0.7330;-0.4363;0.4887;
21.2080;-6.6984;0.2488;-4.3580;0.7330;-0.4363;0.4887;
21.2090;-6.6984;0.2488;-4.3580;0.7330;-0.4363;0.4887;
21.2100;-6.6984;0.2488;-4.3580;0.6806;-0.2618;0.6806;
21.2110;-1.8315;-5.2961;1.8239;0.6806;-0.2618;0.6806;
21.2720;-1.8315;-5.2961;1.8239;0.6806;-0.2618;0.6806;
21.2740;-1.8315;-5.2961;1.8239;0.6806;-0.2618;0.6806;
21.2760;-1.8315;-5.2961;1.8239;0.5061;-0.0872;0.7156;
21.2770;3.7539;-0.8805;-1.8486;0.5061;-0.0872;0.7156;
21.3390;3.7539;-0.8805;-1.8486;0.5061;-0.0872;0.7156;
21.3410;3.7539;-0.8805;-1.8486;0.5061;-0.0872;0.7156;
21.3420;3.7539;-0.8805;-1.8486;-0.4189;-0.0349;-0.0872;
21.3440;2.7210;2.5784;3.0809;-0.4189;-0.0349;-0.0872;
21.4050;2.7210;2.5784;3.0809;-0.4189;-0.0349;-0.0872;
21.4070;2.7210;2.5784;3.0809;-0.4189;-0.0349;-0.0872;
21.4090;2.7210;2.5784;3.0809;-0.8726;-0.0174;-0.5585;
21.4100;1.3461;-1.4059;1.8360;-0.8726;-0.0174;-0.5585;
21.4710;1.3461;-1.4059;1.8360;-0.8726;-0.0174;-0.5585;
21.4730;1.3461;-1.4059;1.8360;-0.8726;-0.0174;-0.5585;
21.4740;1.3461;-1.4059;1.8360;-0.7679;0.0349;-0.5061;
21.4760;-2.4122;2.1994;-2.3509;-0.7679;0.0349;-0.5061;
21.5370;-2.4122;2.1994;-2.3509;-0.7679;0.0349;-0.5061;
21.5390;-2.4122;2.1994;-2.3509;-0.7679;0.0349;-0.5061;
21.5400;-2.4122;2.1994;-2.3509;-0.3840;0.1047;-0.1571;
21.5420;1.0410;-0.3212;4.6454;-0.3840;0.1047;-0.1571;
21.6020;1.0410;-0.3212;4.6454;-0.3840;0.1047;-0.1571;
21.6050;1.0410;-0.3212;4.6454;-0.3840;0.1047;-0.1571;
21.6060;1.0410;-0.3212;4.6454;0.1745;0.2269;0.3316;
21.6070;-0.2159;0.6246;-3.2331;0.1745;0.2269;0.3316;
21.6680;-0.2159;0.6246;-3.2331;0.1745;0.2269;0.3316;
21.6710;-0.2159;0.6246;-3.2331;0.1745;0.2269;0.3316;
21.6720;-0.2159;0.6246;-3.2331;0.4712;0.2792;0.4014;
21.6730;-0.2560;0.0296;0.8977;0.4712;0.2792;0.4014;
21.7350;-0.2560;0.0296;0.8977;0.4712;0.2792;0.4014;
21.7370;-0.2560;0.0296;0.8977;0.4712;0.2792;0.4014;
21.7380;-0.2560;0.0296;0.8977;0.5759;0.2792;0.3840;
21.7390;-2.3177;-0.5129;1.2908;0.5759;0.2792;0.3840;
21.8000;-2.3177;-0.5129;1.2908;0.5759;0.2792;0.3840;
21.8030;-2.3177;-0.5129;1.2908;0.5759;0.2792;0.3840;
21.8040;-2.3177;-0.5129;1.2908;0.5759;0.1396;0.1571;
21.8050;-1.8372;-2.1092;1.0968;0.5759;0.1396;0.1571;
21.8670;-1.8372;-2.1092;1.0968;0.5759;0.1396;0.1571;
21.8690;-1.8372;-2.1092;1.0968;0.5759;0.1396;0.1571;
21.8700;-1.8372;-2.1092;1.0968;0.5061;0.0000;0.0000;
21.8720;0.9876;-1.1085;0.4353;0.5061;0.0000;0.0000;
21.9330;0.9876;-1.1085;0.4353;0.5061;0.0000;0.0000;
21.9350;0.9876;-1.1085;0.4353;0.5061;0.0000;0.0000;
21.9360;0.9876;-1.1085;0.4353;0.4014;-0.1571;-0.1222;
21.9380;5.1754;-3.1581;2.7199;0.4014;-0.1571;-0.1222;
21.9980;5.1754;-3.1581;2.7199;0.4014;-0.1571;-0.1222;
22.0000;5.1754;-3.1581;2.7199;0.4014;-0.1571;-0.1222;
22.0010;5.1754;-3.1581;2.7199;-0.6458;-0.1920;-1.0646;
22.0020;-0.4658;0.1271;0.6347;-0.6458;-0.1920;-1.0646;
22.0640;-0.4658;0.1271;0.6347;-0.6458;-0.1920;-1.0646;
22.0660;-0.4658;0.1271;0.6347;-0.6458;-0.1920;-1.0646;
22.0680;-0.4658;0.1271;0.6347;-1.1170;-0.2094;-1.3962;
22.0690;-2.5506;1.4201;-1.5688;-1.1170;-0.2094;-1.3962;
22.1600;-2.5506;1.4201;-1.5688;-1.1170;-0.2094;-1.3962;
22.1610;-2.5506;1.4201;-1.5688;-1.1170;-0.2094;-1.3962;
22.1620;-2.5506;1.4201;-1.5688;-1.2217;-0.2618;-1.4660;
22.1630;0.8290;2.4444;0.2700;-1.2217;-0.2618;-1.4660;
22.1960;0.8290;2.4444;0.2700;-1.2217;-0.2618;-1.4660;
22.1990;0.8290;2.4444;0.2700;-1.2217;-0.2618;-1.4660;
22.2000;0.8290;2.4444;0.2700;-0.8552;-0.3141;-1.0472;
22.2010;2.9987;3.4915;0.2813;-0.8552;-0.3141;-1.0472;
22.2620;2.9987;3.4915;0.2813;-0.8552;-0.3141;-1.0472;
22.2650;2.9987;3.4915;0.2813;-0.8552;-0.3141;-1.0472;
22.2660;2.9987;3.4915;0.2813;0.7330;-0.3141;0.4014;
22.2660;-3.9100;-1.9310;-6.2011;0.7330;-0.3141;0.4014;
22.3280;-3.9100;-1.9310;-6.2011;0.7330;-0.3141;0.4014;
22.3310;-3.9100;-1.9310;-6.2011;0.7330;-0.3141;0.4014;
22.3310;-3.9100;-1.9310;-6.2011;1.0646;-0.1745;0.8377;
22.3320;-5.1023;1.3678;-2.7358;1.0646;-0.1745;0.8377;
22.3940;-5.1023;1.3678;-2.7358;1.0646;-0.1745;0.8377;
22.3960;-5.1023;1.3678;-2.7358;1.0646;-0.1745;0.8377;
22.3970;-5.1023;1.3678;-2.7358;0.9075;-0.0524;0.9075;
22.3980;-0.4350;-4.3265;5.3974;0.9075;-0.0524;0.9075;
22.4600;-0.4350;-4.3265;5.3974;0.9075;-0.0524;0.9075;
22.4620;-0.4350;-4.3265;5.3974;0.9075;-0.0524;0.9075;
22.4630;-0.4350;-4.3265;5.3974;0.2269;0.0000;0.4712;
22.4640;2.4744;0.8424;1.0318;0.2269;0.0000;0.4712;
22.5260;2.4744;0.8424;1.0318;0.2269;0.0000;0.4712;
22.5280;2.4744;0.8424;1.0318;0.2269;0.0000;0.4712;
22.5280;2.4744;0.8424;1.0318;-0.8901;0.0524;-0.4189;
22.5290;2.4814;0.1008;1.8175;-0.8901;0.0524;-0.4189;
22.5920;2.4814;0.1008;1.8175;-0.8901;0.0524;-0.4189;
22.6040;2.4814;0.1008;1.8175;-0.8901;0.0524;-0.4189;
22.6050;2.4814;0.1008;1.8175;-0.8552;0.1396;-0.4712;
22.6060;0.2022;0.3195;-0.8233;-0.8552;0.1396;-0.4712;
22.6610;0.2022;0.3195;-0.8233;-0.8552;0.1396;-0.4712;
22.6620;0.2022;0.3195;-0.8233;-0.8552;0.1396;-0.4712;
22.6620;0.2022;0.3195;-0.8233;-0.5236;0.2618;-0.2618;
22.6630;-0.8787;1.7372;-0.2712;-0.5236;0.2618;-0.2618;
22.7390;-0.8787;1.7372;-0.2712;-0.5236;0.2618;-0.2618;
22.7400;-0.8787;1.7372;-0.2712;-0.0524;0.4014;0.1222;
22.7410;1.2631;-0.5238;0.8660;-0.0524;0.4014;0.1222;
22.7420;1.2631;-0.5238;0.8660;-0.0524;0.4014;0.1222;
22.8100;1.2631;-0.5238;0.8660;-0.0524;0.4014;0.1222;
22.8110;1.2631;-0.5238;0.8660;-0.0524;0.4014;0.1222;
22.8120;1.2631;-0.5238;0.8660;0.2792;0.5061;0.3665;
22.8130;1.2228;-0.2136;-0.3766;0.2792;0.5061;0.3665;
22.8640;1.2228;-0.2136;-0.3766;0.2792;0.5061;0.3665;
22.8650;1.2228;-0.2136;-0.3766;0.4189;0.5410;0.4014;
22.8660;0.6269;-1.4915;-0.6749;0.4189;0.5410;0.4014;
22.8670;0.6269;-1.4915;-0.6749;0.4189;0.5410;0.4014;
22.9220;0.6269;-1.4915;-0.6749;0.4189;0.5410;0.4014;
22.9240;0.6269;-1.4915;-0.6749;0.4189;0.5410;0.4014;
22.9250;0.6269;-1.4915;-0.6749;0.3840;0.4887;0.2269;
22.9260;-4.7704;0.3683;1.3351;0.3840;0.4887;0.2269;
22.9940;-4.7704;0.3683;1.3351;0.3840;0.4887;0.2269;
22.9950;-4.7704;0.3683;1.3351;0.3840;0.4887;0.2269;
22.9960;-4.7704;0.3683;1.3351;0.3316;0.4189;0.1571;
22.9970;-3.4559;-3.2122;0.9562;0.3316;0.4189;0.1571;
23.0540;-3.4559;-3.2122;0.9562;0.3316;0.4189;0.1571;
23.0560;-3.4559;-3.2122;0.9562;0.3316;0.4189;0.1571;
23.0570;-3.4559;-3.2122;0.9562;0.2269;0.2967;0.0000;
23.0580;3.5450;-2.0966;0.1196;0.2269;0.2967;0.0000;
23.1420;3.5450;-2.0966;0.1196;0.2269;0.2967;0.0000;
23.1430;3.5450;-2.0966;0.1196;0.1920;0.2269;-0.1222;
23.1440;5.0705;-2.2753;3.2465;0.1920;0.2269;-0.1222;
23.1460;5.0705;-2.2753;3.2465;0.1920;0.2269;-0.1222;
23.1860;5.0705;-2.2753;3.2465;0.1920;0.2269;-0.1222;
23.1880;5.0705;-2.2753;3.2465;0.1920;0.2269;-0.1222;
23.1890;5.0705;-2.2753;3.2465;0.1396;0.1745;-0.2618;
23.1900;-1.0609;0.1477;-1.9137;0.1396;0.1745;-0.2618;
23.2590;-1.0609;0.1477;-1.9137;0.1396;0.1745;-0.2618;
23.2610;-1.0609;0.1477;-1.9137;0.1396;0.1745;-0.2618;
23.2620;-1.0609;0.1477;-1.9137;-1.2217;0.1047;-2.1816;
23.2640;-1.1430;3.0989;-0.5134;-1.2217;0.1047;-2.1816;
23.3190;-1.1430;3.0989;-0.5134;-1.2217;0.1047;-2.1816;
23.3210;-1.1430;3.0989;-0.5134;-1.2217;0.1047;-2.1816;
23.3220;-1.1430;3.0989;-0.5134;-1.2391;0.1047;-2.2165;
23.3230;2.0069;3.3443;0.1691;-1.2391;0.1047;-2.2165;
23.3860;2.0069;3.3443;0.1691;-1.2391;0.1047;-2.2165;
23.3870;2.0069;3.3443;0.1691;-1.2391;0.1047;-2.2165;
23.3880;2.0069;3.3443;0.1691;-0.1047;0.1047;-0.2094;
23.3890;1.2085;2.0394;-2.9292;-0.1047;0.1047;-0.2094;
23.4500;1.2085;2.0394;-2.9292;-0.1047;0.1047;-0.2094;
23.4520;1.2085;2.0394;-2.9292;-0.1047;0.1047;-0.2094;
23.4530;1.2085;2.0394;-2.9292;0.9599;0.1047;1.7104;
23.4540;-4.9165;-1.9990;-4.0467;0.9599;0.1047;1.7104;
23.5160;-4.9165;-1.9990;-4.0467;0.9599;0.1047;1.7104;
23.5180;-4.9165;-1.9990;-4.0467;0.9599;0.1047;1.7104;
23.5190;-4.9165;-1.9990;-4.0467;0.8901;0.0524;1.7802;
23.5200;-1.7009;1.8945;-0.1601;0.8901;0.0524;1.7802;
23.5820;-1.7009;1.8945;-0.1601;0.8901;0.0524;1.7802;
23.5850;-1.7009;1.8945;-0.1601;0.8901;0.0524;1.7802;
23.5860;-1.7009;1.8945;-0.1601;-0.1396;0.0000;0.5934;
23.5870;1.2805;-2.6874;-2.3005;-0.1396;0.0000;0.5934;
23.6490;1.2805;-2.6874;-2.3005;-0.1396;0.0000;0.5934;
23.6510;1.2805;-2.6874;-2.3005;-0.1396;0.0000;0.5934;
23.6530;1.2805;-2.6874;-2.3005;-0.8028;-0.1047;-0.1920;
23.6540;0.6440;2.1433;4.8494;-0.8028;-0.1047;-0.1920;
23.7150;0.6440;2.1433;4.8494;-0.8028;-0.1047;-0.1920;
23.7170;0.6440;2.1433;4.8494;-0.8028;-0.1047;-0.1920;
23.7180;0.6440;2.1433;4.8494;-0.8726;-0.1745;-0.3490;
23.7200;1.6094;-0.7005;-0.0896;-0.8726;-0.1745;-0.3490;
23.7810;1.6094;-0.7005;-0.0896;-0.8726;-0.1745;-0.3490;
23.7820;1.6094;-0.7005;-0.0896;-0.8726;-0.1745;-0.3490;
23.7830;1.6094;-0.7005;-0.0896;-0.6108;-0.1222;-0.3316;
23.7840;-0.8080;1.9983;0.4986;-0.6108;-0.1222;-0.3316;
23.8460;-0.8080;1.9983;0.4986;-0.6108;-0.1222;-0.3316;
23.8600;-0.8080;1.9983;0.4986;-0.6108;-0.1222;-0.3316;
23.8610;-0.8080;1.9983;0.4986;-0.1222;0.0174;-0.1396;
23.8620;1.1184;-0.5173;1.8119;-0.1222;0.0174;-0.1396;
23.9120;1.1184;-0.5173;1.8119;-0.1222;0.0174;-0.1396;
23.9140;1.1184;-0.5173;1.8119;-0.1222;0.0174;-0.1396;
23.9150;1.1184;-0.5173;1.8119;0.3141;0.1745;0.0524;
23.9160;1.2734;0.0642;-2.7498;0.3141;0.1745;0.0524;
23.9790;1.2734;0.0642;-2.7498;0.3141;0.1745;0.0524;
23.9810;1.2734;0.0642;-2.7498;0.3141;0.1745;0.0524;
23.9820;1.2734;0.0642;-2.7498;0.5934;0.2443;0.1745;
23.9840;0.6908;-1.4311;1.2256;0.5934;0.2443;0.1745;
24.0450;0.6908;-1.4311;1.2256;0.5934;0.2443;0.1745;
24.0470;0.6908;-1.4311;1.2256;0.5934;0.2443;0.1745;
24.0480;0.6908;-1.4311;1.2256;0.6458;0.2269;0.1920;
24.0500;-3.7214;-0.0810;1.9307;0.6458;0.2269;0.1920;
24.1110;-3.7214;-0.0810;1.9307;0.6458;0.2269;0.1920;
24.1130;-3.7214;-0.0810;1.9307;0.6458;0.2269;0.1920;
24.1140;-3.7214;-0.0810;1.9307;0.5934;0.1047;0.1396;
24.1160;-3.4530;-2.6380;0.6645;0.5934;0.1047;0.1396;
24.1770;-3.4530;-2.6380;0.6645;0.5934;0.1047;0.1396;
24.1790;-3.4530;-2.6380;0.6645;0.5934;0.1047;0.1396;
24.1800;-3.4530;-2.6380;0.6645;0.5236;-0.0349;0.0872;
24.1820;2.2024;-1.8698;-0.6797;0.5236;-0.0349;0.0872;
24.2430;2.2024;-1.8698;-0.6797;0.5236;-0.0349;0.0872;
24.2450;2.2024;-1.8698;-0.6797;0.5236;-0.0349;0.0872;
24.2840;2.2024;-1.8698;-0.6797;0.4712;-0.2094;-0.0174;
24.2890;4.5135;-3.2580;3.0484;0.4712;-0.2094;-0.0174;
24.3080;4.5135;-3.2580;3.0484;0.4712;-0.2094;-0.0174;
24.3110;4.5135;-3.2580;3.0484;0.4712;-0.2094;-0.0174;
24.3120;4.5135;-3.2580;3.0484;-1.0472;-0.2269;-2.2514;
24.3130;-2.2244;1.1158;-1.3479;-1.0472;-0.2269;-2.2514;
24.3740;-2.2244;1.1158;-1.3479;-1.0472;-0.2269;-2.2514;
24.3760;-2.2244;1.1158;-1.3479;-1.0472;-0.2269;-2.2514;
24.3770;-2.2244;1.1158;-1.3479;-1.2217;-0.3840;-2.3387;
24.3780;-1.1192;2.7411;-0.2973;-1.2217;-0.3840;-2.3387;
24.4400;-1.1192;2.7411;-0.2973;-1.2217;-0.3840;-2.3387;
24.4420;-1.1192;2.7411;-0.2973;-1.2217;-0.3840;-2.3387;
24.4430;-1.1192;2.7411;-0.2973;-1.2915;-0.6283;-2.3910;
24.4440;2.3256;3.3623;0.4964;-1.2915;-0.6283;-2.3910;
24.5060;2.3256;3.3623;0.4964;-1.2915;-0.6283;-2.3910;
24.5080;2.3256;3.3623;0.4964;-1.2915;-0.6283;-2.3910;
24.5090;2.3256;3.3623;0.4964;-0.2967;-1.0123;-0.3840;
24.5100;3.1921;4.4977;0.2500;-0.2967;-1.0123;-0.3840;
24.5720;3.1921;4.4977;0.2500;-0.2967;-1.0123;-0.3840;
24.5740;3.1921;4.4977;0.2500;-0.2967;-1.0123;-0.3840;
24.5750;3.1921;4.4977;0.2500;0.9250;-0.8552;0.9599;
24.5760;-5.7692;-3.8524;-8.2365;0.9250;-0.8552;0.9599;
24.6380;-5.7692;-3.8524;-8.2365;0.9250;-0.8552;0.9599;
24.6400;-5.7692;-3.8524;-8.2365;0.9250;-0.8552;0.9599;
24.6410;-5.7692;-3.8524;-8.2365;0.9250;-0.5934;1.1344;
24.6630;-4.3810;1.3363;-2.9987;0.9250;-0.5934;1.1344;
24.7040;-4.3810;1.3363;-2.9987;0.9250;-0.5934;1.1344;
24.7130;-4.3810;1.3363;-2.9987;0.9250;-0.5934;1.1344;
24.7140;-4.3810;1.3363;-2.9987;0.8901;-0.3141;1.1868;
24.7150;-2.5801;-5.8492;0.9260;0.8901;-0.3141;1.1868;
24.7940;-2.5801;-5.8492;0.9260;0.8901;-0.3141;1.1868;
24.7950;-2.5801;-5.8492;0.9260;0.8901;-0.3141;1.1868;
24.7970;-2.5801;-5.8492;0.9260;-0.1571;-0.2967;0.1920;
24.7980;4.9103;2.5331;0.8975;-0.1571;-0.2967;0.1920;
24.8430;4.9103;2.5331;0.8975;-0.1571;-0.2967;0.1920;
24.8450;4.9103;2.5331;0.8975;-0.8377;-0.2792;-0.4538;
24.8460;3.5942;-0.3465;1.5954;-0.8377;-0.2792;-0.4538;
24.8480;3.5942;-0.3465;1.5954;-0.8377;-0.2792;-0.4538;
24.9230;3.5942;-0.3465;1.5954;-0.8377;-0.2792;-0.4538;
24.9270;3.5942;-0.3465;1.5954;-0.8901;-0.1920;-0.5759;
24.9290;-0.6269;-1.1081;2.6459;-0.8901;-0.1920;-0.5759;
24.9300;-0.6269;-1.1081;2.6459;-0.8901;-0.1920;-0.5759;
24.9700;-0.6269;-1.1081;2.6459;-0.8901;-0.1920;-0.5759;
24.9710;-0.6269;-1.1081;2.6459;-0.8901;-0.1920;-0.5759;
24.9720;-0.6269;-1.1081;2.6459;-0.6108;-0.0524;-0.4014;
24.9730;-2.5287;2.4297;-2.0422;-0.6108;-0.0524;-0.4014;
25.0420;-2.5287;2.4297;-2.0422;-0.6108;-0.0524;-0.4014;
25.0430;-2.5287;2.4297;-2.0422;-0.1222;0.0698;0.0174;
25.0440;2.6321;-1.0572;2.4500;-0.1222;0.0698;0.0174;
25.0460;2.6321;-1.0572;2.4500;-0.1222;0.0698;0.0174;
25.1020;2.6321;-1.0572;2.4500;-0.1222;0.0698;0.0174;
25.1030;2.6321;-1.0572;2.4500;-0.1222;0.0698;0.0174;
25.1050;2.6321;-1.0572;2.4500;0.4189;0.2094;0.4014;
25.1060;0.8316;1.0656;2.2822;0.4189;0.2094;0.4014;
25.1780;0.8316;1.0656;2.2822;0.4189;0.2094;0.4014;
25.1790;0.8316;1.0656;2.2822;0.5934;0.2269;0.4014;
25.1800;-2.7476;0.8428;1.0251;0.5934;0.2269;0.4014;
25.1810;-2.7476;0.8428;1.0251;0.5934;0.2269;0.4014;
25.2320;-2.7476;0.8428;1.0251;0.5934;0.2269;0.4014;
25.2340;-2.7476;0.8428;1.0251;0.5934;0.2269;0.4014;
25.2360;-2.7476;0.8428;1.0251;0.6458;0.1571;0.2269;
25.2370;-1.8179;-1.8569;0.5165;0.6458;0.1571;0.2269;
25.3040;-1.8179;-1.8569;0.5165;0.6458;0.1571;0.2269;
25.3060;-1.8179;-1.8569;0.5165;0.6458;0.1571;0.2269;
25.3070;-1.8179;-1.8569;0.5165;0.6108;0.0524;0.1222;
25.3090;-3.1055;-3.0507;0.5697;0.6108;0.0524;0.1222;
25.3650;-3.1055;-3.0507;0.5697;0.6108;0.0524;0.1222;
25.3670;-3.1055;-3.0507;0.5697;0.6108;0.0524;0.1222;
25.3680;-3.1055;-3.0507;0.5697;0.4538;-0.1222;-0.0524;
25.3700;1.6234;-1.9430;-0.3741;0.4538;-0.1222;-0.0524;
25.4360;1.6234;-1.9430;-0.3741;0.4538;-0.1222;-0.0524;
25.4370;1.6234;-1.9430;-0.3741;0.4538;-0.1222;-0.0524;
25.4390;1.6234;-1.9430;-0.3741;0.3665;-0.2443;-0.1745;
25.4400;3.0427;-3.7662;2.3265;0.3665;-0.2443;-0.1745;
25.4960;3.0427;-3.7662;2.3265;0.3665;-0.2443;-0.1745;
25.4980;3.0427;-3.7662;2.3265;0.3665;-0.2443;-0.1745;
25.4990;3.0427;-3.7662;2.3265;0.2443;-0.2792;-0.2094;
25.5000;-1.6385;1.5480;-1.9935;0.2443;-0.2792;-0.2094;
25.5650;-1.6385;1.5480;-1.9935;0.2443;-0.2792;-0.2094;
25.5700;-1.6385;1.5480;-1.9935;0.2443;-0.2792;-0.2094;
25.5710;-1.6385;1.5480;-1.9935;-0.2967;-0.2094;-0.5236;
25.5720;-1.9123;3.3649;0.4469;-0.2967;-0.2094;-0.5236;
25.6280;-1.9123;3.3649;0.4469;-0.2967;-0.2094;-0.5236;
25.6300;-1.9123;3.3649;0.4469;-0.2967;-0.2094;-0.5236;
25.6310;-1.9123;3.3649;0.4469;-1.2042;-0.1396;-1.1170;
25.6320;1.9118;2.6286;0.9321;-1.2042;-0.1396;-1.1170;
25.6940;1.9118;2.6286;0.9321;-1.2042;-0.1396;-1.1170;
25.6960;1.9118;2.6286;0.9321;-1.2042;-0.1396;-1.1170;
25.6970;1.9118;2.6286;0.9321;-0.8377;-0.0349;-0.7505;
25.6990;0.7454;1.8675;-3.5237;-0.8377;-0.0349;-0.7505;
25.7600;0.7454;1.8675;-3.5237;-0.8377;-0.0349;-0.7505;
25.7620;0.7454;1.8675;-3.5237;-0.8377;-0.0349;-0.7505;
25.7630;0.7454;1.8675;-3.5237;0.4189;0.0174;0.2792;
25.7640;-4.5796;-2.2576;-5.6954;0.4189;0.0174;0.2792;
25.8270;-4.5796;-2.2576;-5.6954;0.4189;0.0174;0.2792;
25.8290;-4.5796;-2.2576;-5.6954;0.4189;0.0174;0.2792;
25.8300;-4.5796;-2.2576;-5.6954;1.0123;0.1920;0.9599;
25.8320;-1.0819;2.4982;1.9348;1.0123;0.1920;0.9599;
25.8930;-1.0819;2.4982;1.9348;1.0123;0.1920;0.9599;
25.8960;-1.0819;2.4982;1.9348;1.0123;0.1920;0.9599;
25.8980;-1.0819;2.4982;1.9348;0.7679;0.3141;0.9948;
25.8990;0.5371;-2.0564;-1.9210;0.7679;0.3141;0.9948;
25.9600;0.5371;-2.0564;-1.9210;0.7679;0.3141;0.9948;
25.9610;0.5371;-2.0564;-1.9210;0.7679;0.3141;0.9948;
25.9630;0.5371;-2.0564;-1.9210;-0.2967;0.3840;0.2269;
25.9640;2.7821;4.8754;4.5189;-0.2967;0.3840;0.2269;
26.0250;2.7821;4.8754;4.5189;-0.2967;0.3840;0.2269;
26.0270;2.7821;4.8754;4.5189;-0.2967;0.3840;0.2269;
26.0280;2.7821;4.8754;4.5189;-0.9599;0.4189;-0.2094;
26.0300;1.9471;-2.1900;0.0860;-0.9599;0.4189;-0.2094;
26.0910;1.9471;-2.1900;0.0860;-0.9599;0.4189;-0.2094;
26.0930;1.9471;-2.1900;0.0860;-0.9599;0.4189;-0.2094;
26.0940;1.9471;-2.1900;0.0860;-0.8552;0.4887;-0.1920;
26.0960;-2.4054;2.3825;-1.0277;-0.8552;0.4887;-0.1920;
26.1570;-2.4054;2.3825;-1.0277;-0.8552;0.4887;-0.1920;
26.1590;-2.4054;2.3825;-1.0277;-0.8552;0.4887;-0.1920;
26.1600;-2.4054;2.3825;-1.0277;-0.4189;0.5410;-0.0174;
26.1620;1.9604;-1.0042;4.0842;-0.4189;0.5410;-0.0174;
26.2230;1.9604;-1.0042;4.0842;-0.4189;0.5410;-0.0174;
26.2250;1.9604;-1.0042;4.0842;-0.4189;0.5410;-0.0174;
26.2260;1.9604;-1.0042;4.0842;0.0174;0.5934;0.2269;
26.2280;0.6954;-0.6923;-1.7075;0.0174;0.5934;0.2269;
26.3640;0.6954;-0.6923;-1.7075;0.0174;0.5934;0.2269;
26.3650;0.6954;-0.6923;-1.7075;0.4887;0.4887;0.3490;
26.3660;0.6954;-0.6923;-1.7075;0.4887;0.4887;0.3490;
26.3660;0.6954;-0.6923;-1.7075;0.4887;0.4887;0.3490;
26.3670;-4.8798;-0.0080;1.3897;0.4887;0.4887;0.3490;
26.3680;-4.8798;-0.0080;1.3897;0.4887;0.4887;0.3490;
26.3690;-4.8798;-0.0080;1.3897;0.4887;0.4887;0.3490;
26.3700;-4.8798;-0.0080;1.3897;0.4887;0.4887;0.3490;
26.3710;-4.8798;-0.0080;1.3897;0.4887;0.4887;0.3490;
26.4200;-4.8798;-0.0080;1.3897;0.4887;0.4887;0.3490;
26.4220;-4.8798;-0.0080;1.3897;0.4887;0.4887;0.3490;
26.4230;-4.8798;-0.0080;1.3897;0.4712;0.3316;0.1745;
26.4240;-0.6348;-2.6268;1.4654;0.4712;0.3316;0.1745;
26.4860;-0.6348;-2.6268;1.4654;0.4712;0.3316;0.1745;
26.4880;-0.6348;-2.6268;1.4654;0.4712;0.3316;0.1745;
26.4890;-0.6348;-2.6268;1.4654;0.4014;0.1396;-0.0524;
26.4900;4.2970;-4.8308;0.4229;0.4014;0.1396;-0.0524;
26.5520;4.2970;-4.8308;0.4229;0.4014;0.1396;-0.0524;
26.5540;4.2970;-4.8308;0.4229;0.4014;0.1396;-0.0524;
26.5550;4.2970;-4.8308;0.4229;0.2967;-0.0698;-0.3316;
26.5560;4.3185;-1.9661;2.3330;0.2967;-0.0698;-0.3316;
26.6190;4.3185;-1.9661;2.3330;0.2967;-0.0698;-0.3316;
26.6210;4.3185;-1.9661;2.3330;0.2967;-0.0698;-0.3316;
26.6220;4.3185;-1.9661;2.3330;0.2443;-0.2443;-0.4712;
26.6240;-1.2342;1.0367;-1.5501;0.2443;-0.2443;-0.4712;
26.6840;-1.2342;1.0367;-1.5501;0.2443;-0.2443;-0.4712;
26.6870;-1.2342;1.0367;-1.5501;0.2443;-0.2443;-0.4712;
26.6880;-1.2342;1.0367;-1.5501;-1.3788;-0.3141;-2.8448;
26.7140;-0.8443;3.1077;0.7190;-1.3788;-0.3141;-2.8448;
26.7510;-0.8443;3.1077;0.7190;-1.3788;-0.3141;-2.8448;
26.7530;-0.8443;3.1077;0.7190;-1.3788;-0.3141;-2.8448;
26.7580;-0.8443;3.1077;0.7190;-1.5184;-0.4712;-2.8448;
26.7600;2.4194;3.5951;0.2902;-1.5184;-0.4712;-2.8448;
26.8170;2.4194;3.5951;0.2902;-1.5184;-0.4712;-2.8448;
26.8400;2.4194;3.5951;0.2902;-1.5184;-0.4712;-2.8448;
26.8410;2.4194;3.5951;0.2902;-1.5707;-0.6632;-2.8448;
26.8420;2.4267;3.5442;-1.5866;-1.5707;-0.6632;-2.8448;
26.8890;2.4267;3.5442;-1.5866;-1.5707;-0.6632;-2.8448;
26.8900;2.4267;3.5442;-1.5866;-1.5707;-0.6632;-2.8448;
26.8910;2.4267;3.5442;-1.5866;0.9075;-0.6632;0.9424;
26.8920;-9.7705;-2.7068;-4.8794;0.9075;-0.6632;0.9424;
26.9680;-9.7705;-2.7068;-4.8794;0.9075;-0.6632;0.9424;
26.9690;-9.7705;-2.7068;-4.8794;0.8901;-0.5410;1.1693;
26.9700;-2.5106;-6.8139;5.1161;0.8901;-0.5410;1.1693;
26.9710;-2.5106;-6.8139;5.1161;0.8901;-0.5410;1.1693;
27.0170;-2.5106;-6.8139;5.1161;0.8901;-0.5410;1.1693;
27.0180;-2.5106;-6.8139;5.1161;0.8901;-0.5410;1.1693;
27.0190;-2.5106;-6.8139;5.1161;0.8028;-0.4014;1.2217;
27.0200;6.5045;3.8303;0.9450;0.8028;-0.4014;1.2217;
27.0980;6.5045;3.8303;0.9450;0.8028;-0.4014;1.2217;
27.1000;6.5045;3.8303;0.9450;-0.2792;-0.4538;0.0000;
27.1010;1.3918;1.5357;4.7830;-0.2792;-0.4538;0.0000;
27.1020;1.3918;1.5357;4.7830;-0.2792;-0.4538;0.0000;
27.1490;1.3918;1.5357;4.7830;-0.2792;-0.4538;0.0000;
27.1510;1.3918;1.5357;4.7830;-0.2792;-0.4538;0.0000;
27.1520;1.3918;1.5357;4.7830;-0.7156;-0.4363;-0.4712;
27.1530;-0.6400;0.0248;1.1289;-0.7156;-0.4363;-0.4712;
27.2240;-0.6400;0.0248;1.1289;-0.7156;-0.4363;-0.4712;
27.2260;-0.6400;0.0248;1.1289;-0.5934;-0.2792;-0.4014;
27.2270;0.2842;1.4065;-1.2807;-0.5934;-0.2792;-0.4014;
27.2280;0.2842;1.4065;-1.2807;-0.5934;-0.2792;-0.4014;
27.2780;0.2842;1.4065;-1.2807;-0.5934;-0.2792;-0.4014;
27.2810;0.2842;1.4065;-1.2807;-0.5934;-0.2792;-0.4014;
27.2820;0.2842;1.4065;-1.2807;-0.2094;-0.0872;-0.0872;
27.2830;0.0724;1.0120;1.2671;-0.2094;-0.0872;-0.0872;
27.3660;0.0724;1.0120;1.2671;-0.2094;-0.0872;-0.0872;
27.3750;0.0724;1.0120;1.2671;-0.2094;-0.0872;-0.0872;
27.3770;0.0724;1.0120;1.2671;0.2618;0.1396;0.2792;
27.3780;0.6805;0.1560;-3.9864;0.2618;0.1396;0.2792;
27.4100;0.6805;0.1560;-3.9864;0.2618;0.1396;0.2792;
27.4170;0.6805;0.1560;-3.9864;0.2618;0.1396;0.2792;
27.4180;0.6805;0.1560;-3.9864;0.5236;0.2618;0.4014;
27.4190;0.3605;-0.8284;-0.6673;0.5236;0.2618;0.4014;
27.4760;0.3605;-0.8284;-0.6673;0.5236;0.2618;0.4014;
27.4780;0.3605;-0.8284;-0.6673;0.5236;0.2618;0.4014;
27.4790;0.3605;-0.8284;-0.6673;0.5236;0.2094;0.2792;
27.4810;-3.3854;-0.6293;1.8123;0.5236;0.2094;0.2792;
27.5420;-3.3854;-0.6293;1.8123;0.5236;0.2094;0.2792;
27.5440;-3.3854;-0.6293;1.8123;0.5236;0.2094;0.2792;
27.5450;-3.3854;-0.6293;1.8123;0.3840;0.0349;0.1047;
27.5480;-1.9449;-2.7531;1.3418;0.3840;0.0349;0.1047;
27.6080;-1.9449;-2.7531;1.3418;0.3840;0.0349;0.1047;
27.6100;-1.9449;-2.7531;1.3418;0.3840;0.0349;0.1047;
27.6110;-1.9449;-2.7531;1.3418;0.2967;-0.1396;-0.0349;
27.6120;1.8180;-1.0428;-1.8574;0.2967;-0.1396;-0.0349;
27.6750;1.8180;-1.0428;-1.8574;0.2967;-0.1396;-0.0349;
27.6770;1.8180;-1.0428;-1.8574;0.2967;-0.1396;-0.0349;
27.6790;1.8180;-1.0428;-1.8574;0.2792;-0.2618;-0.1571;
27.6800;3.8969;-2.6210;2.9996;0.2792;-0.2618;-0.1571;
27.7410;3.8969;-2.6210;2.9996;0.2792;-0.2618;-0.1571;
27.7430;3.8969;-2.6210;2.9996;0.2792;-0.2618;-0.1571;
27.7440;3.8969;-2.6210;2.9996;0.2792;-0.3141;-0.2269;
27.7460;0.4394;-0.8225;-1.2182;0.2792;-0.3141;-0.2269;
27.8060;0.4394;-0.8225;-1.2182;0.2792;-0.3141;-0.2269;
27.8090;0.4394;-0.8225;-1.2182;0.2792;-0.3141;-0.2269;
27.8100;0.4394;-0.8225;-1.2182;0.2443;-0.2792;-0.2269;
27.8110;-1.9393;1.5479;0.0208;0.2443;-0.2792;-0.2269;
27.8730;-1.9393;1.5479;0.0208;0.2443;-0.2792;-0.2269;
27.8750;-1.9393;1.5479;0.0208;0.2443;-0.2792;-0.2269;
27.8770;-1.9393;1.5479;0.0208;-1.2566;-0.1920;-1.3089;
27.8790;1.5414;2.5845;0.3396;-1.2566;-0.1920;-1.3089;
27.9390;1.5414;2.5845;0.3396;-1.2566;-0.1920;-1.3089;
27.9410;1.5414;2.5845;0.3396;-1.2566;-0.1920;-1.3089;
27.9420;1.5414;2.5845;0.3396;-1.3264;-0.1222;-1.3439;
27.9440;4.0446;4.2041;0.2172;-1.3264;-0.1222;-1.3439;
28.0040;4.0446;4.2041;0.2172;-1.3264;-0.1222;-1.3439;
28.0070;4.0446;4.2041;0.2172;-1.3264;-0.1222;-1.3439;
28.0080;4.0446;4.2041;0.2172;-0.6458;-0.0698;-0.6806;
28.0090;-5.2706;-2.2498;-8.1955;-0.6458;-0.0698;-0.6806;
28.0700;-5.2706;-2.2498;-8.1955;-0.6458;-0.0698;-0.6806;
28.0720;-5.2706;-2.2498;-8.1955;-0.6458;-0.0698;-0.6806;
28.0730;-5.2706;-2.2498;-8.1955;0.9250;0.0174;0.9075;
28.0740;-2.8360;3.9009;0.2970;0.9250;0.0174;0.9075;
28.1370;-2.8360;3.9009;0.2970;0.9250;0.0174;0.9075;
28.1390;-2.8360;3.9009;0.2970;0.9250;0.0174;0.9075;
28.1400;-2.8360;3.9009;0.2970;0.8377;0.1047;1.0123;
28.1420;0.6230;-8.1465;-6.0500;0.8377;0.1047;1.0123;
28.2020;0.6230;-8.1465;-6.0500;0.8377;0.1047;1.0123;
28.2050;0.6230;-8.1465;-6.0500;0.8377;0.1047;1.0123;
28.2060;0.6230;-8.1465;-6.0500;-0.1920;0.1222;0.2094;
28.2080;2.9061;4.6456;3.7278;-0.1920;0.1222;0.2094;
28.2680;2.9061;4.6456;3.7278;-0.1920;0.1222;0.2094;
28.2710;2.9061;4.6456;3.7278;-0.1920;0.1222;0.2094;
28.2720;2.9061;4.6456;3.7278;-0.8726;0.1222;-0.3840;
28.2730;3.2889;0.3589;1.3717;-0.8726;0.1222;-0.3840;
28.3340;3.2889;0.3589;1.3717;-0.8726;0.1222;-0.3840;
28.3370;3.2889;0.3589;1.3717;-0.8726;0.1222;-0.3840;
28.3380;3.2889;0.3589;1.3717;-0.8726;0.1047;-0.4887;
28.3390;-1.9323;-0.3763;-0.0036;-0.8726;0.1047;-0.4887;
28.4000;-1.9323;-0.3763;-0.0036;-0.8726;0.1047;-0.4887;
28.4030;-1.9323;-0.3763;-0.0036;-0.8726;0.1047;-0.4887;
28.4050;-1.9323;-0.3763;-0.0036;-0.6108;0.1920;-0.3665;
28.4060;-1.5095;2.0236;-1.2243;-0.6108;0.1920;-0.3665;
28.4670;-1.5095;2.0236;-1.2243;-0.6108;0.1920;-0.3665;
28.4680;-1.5095;2.0236;-1.2243;-0.6108;0.1920;-0.3665;
28.4690;-1.5095;2.0236;-1.2243;0.0174;0.3490;0.1571;
28.4700;-1.7724;0.7831;-4.0922;0.0174;0.3490;0.1571;
28.5320;-1.7724;0.7831;-4.0922;0.0174;0.3490;0.1571;
28.5340;-1.7724;0.7831;-4.0922;0.0174;0.3490;0.1571;
28.5350;-1.7724;0.7831;-4.0922;0.3316;0.4189;0.3665;
28.5360;0.7750;-0.8560;3.2841;0.3316;0.4189;0.3665;
28.5980;0.7750;-0.8560;3.2841;0.3316;0.4189;0.3665;
28.6000;0.7750;-0.8560;3.2841;0.3316;0.4189;0.3665;
28.6010;0.7750;-0.8560;3.2841;0.4712;0.4014;0.3316;
28.6020;-3.5844;-0.2195;-0.1121;0.4712;0.4014;0.3316;
28.6640;-3.5844;-0.2195;-0.1121;0.4712;0.4014;0.3316;
28.6660;-3.5844;-0.2195;-0.1121;0.4712;0.4014;0.3316;
28.6670;-3.5844;-0.2195;-0.1121;0.4538;0.2618;0.1571;
28.6680;-4.2169;-1.0428;0.4145;0.4538;0.2618;0.1571;
28.7310;-4.2169;-1.0428;0.4145;0.4538;0.2618;0.1571;
28.7330;-4.2169;-1.0428;0.4145;0.4538;0.2618;0.1571;
28.7340;-4.2169;-1.0428;0.4145;0.3490;0.0000;-0.0698;
28.7360;1.1471;-0.5936;-0.6109;0.3490;0.0000;-0.0698;
28.7960;1.1471;-0.5936;-0.6109;0.3490;0.0000;-0.0698;
28.7990;1.1471;-0.5936;-0.6109;0.3490;0.0000;-0.0698;
28.8000;1.1471;-0.5936;-0.6109;0.2967;-0.1571;-0.2269;
28.8080;4.6791;-5.8906;2.7322;0.2967;-0.1571;-0.2269;
28.8620;4.6791;-5.8906;2.7322;0.2967;-0.1571;-0.2269;
28.8650;4.6791;-5.8906;2.7322;0.2967;-0.1571;-0.2269;
28.8870;4.6791;-5.8906;2.7322;0.2443;-0.2618;-0.3490;
28.8880;0.4877;0.1660;-1.5880;0.2443;-0.2618;-0.3490;
28.9280;0.4877;0.1660;-1.5880;0.2443;-0.2618;-0.3490;
28.9360;0.4877;0.1660;-1.5880;0.2443;-0.2618;-0.3490;
28.9370;0.4877;0.1660;-1.5880;0.2443;-0.2792;-0.2967;
28.9380;-1.3078;2.6697;-1.0136;0.2443;-0.2792;-0.2967;
29.0190;-1.3078;2.6697;-1.0136;0.2443;-0.2792;-0.2967;
29.0200;-1.3078;2.6697;-1.0136;0.2443;-0.2792;-0.2967;
29.0220;-1.3078;2.6697;-1.0136;0.2269;-0.2094;0.0174;
29.0230;0.3485;4.3564;0.7493;0.2269;-0.2094;0.0174;
29.0630;0.3485;4.3564;0.7493;0.2269;-0.2094;0.0174;
29.0640;0.3485;4.3564;0.7493;0.1571;-0.1047;0.3490;
29.0650;3.6350;4.3064;-0.7963;0.1571;-0.1047;0.3490;
29.0660;3.6350;4.3064;-0.7963;0.1571;-0.1047;0.3490;
29.1570;3.6350;4.3064;-0.7963;0.1571;-0.1047;0.3490;
29.1580;3.6350;4.3064;-0.7963;0.0524;-0.0349;0.4712;
29.1590;-4.5425;-6.0912;-10.5612;0.0524;-0.0349;0.4712;
29.1610;-4.5425;-6.0912;-10.5612;0.0524;-0.0349;0.4712;
29.1920;-4.5425;-6.0912;-10.5612;0.0524;-0.0349;0.4712;
29.1940;-4.5425;-6.0912;-10.5612;0.0524;-0.0349;0.4712;
29.1950;-4.5425;-6.0912;-10.5612;-0.0698;-0.0174;0.3490;
29.1960;-3.0397;3.4396;-1.0480;-0.0698;-0.0174;0.3490;
29.2680;-3.0397;3.4396;-1.0480;-0.0698;-0.0174;0.3490;
29.2690;-3.0397;3.4396;-1.0480;-0.3141;-0.0349;0.1222;
29.2700;2.9111;-8.1888;-3.7228;-0.3141;-0.0349;0.1222;
29.2710;2.9111;-8.1888;-3.7228;-0.3141;-0.0349;0.1222;
29.3260;2.9111;-8.1888;-3.7228;-0.3141;-0.0349;0.1222;
29.3270;2.9111;-8.1888;-3.7228;-0.3141;-0.0349;0.1222;
29.3280;2.9111;-8.1888;-3.7228;-0.7156;-0.1222;-0.1920;
29.3290;2.4028;3.8884;5.4426;-0.7156;-0.1222;-0.1920;
29.4020;2.4028;3.8884;5.4426;-0.7156;-0.1222;-0.1920;
29.4030;2.4028;3.8884;5.4426;-0.8726;-0.1571;-0.3316;
29.4050;2.2731;0.1332;2.6195;-0.8726;-0.1571;-0.3316;
29.4060;2.2731;0.1332;2.6195;-0.8726;-0.1571;-0.3316;
29.4570;2.2731;0.1332;2.6195;-0.8726;-0.1571;-0.3316;
29.4590;2.2731;0.1332;2.6195;-0.8726;-0.1571;-0.3316;
29.4600;2.2731;0.1332;2.6195;-0.8552;-0.1396;-0.3665;
29.4610;-0.5986;1.1742;-3.5078;-0.8552;-0.1396;-0.3665;
29.5300;-0.5986;1.1742;-3.5078;-0.8552;-0.1396;-0.3665;
29.5320;-0.5986;1.1742;-3.5078;-0.8552;-0.1396;-0.3665;
29.5330;-0.5986;1.1742;-3.5078;-0.4887;0.0000;-0.2094;
29.5350;2.0938;0.3586;5.1499;-0.4887;0.0000;-0.2094;
29.5880;2.0938;0.3586;5.1499;-0.4887;0.0000;-0.2094;
29.5900;2.0938;0.3586;5.1499;-0.4887;0.0000;-0.2094;
29.5910;2.0938;0.3586;5.1499;0.1222;0.2269;0.1745;
29.5920;-2.4537;0.9790;-4.4017;0.1222;0.2269;0.1745;
29.6540;-2.4537;0.9790;-4.4017;0.1222;0.2269;0.1745;
29.6560;-2.4537;0.9790;-4.4017;0.1222;0.2269;0.1745;
29.6570;-2.4537;0.9790;-4.4017;0.4538;0.3665;0.2967;
29.6580;0.4439;-0.4854;1.4694;0.4538;0.3665;0.2967;
29.7210;0.4439;-0.4854;1.4694;0.4538;0.3665;0.2967;
29.7230;0.4439;-0.4854;1.4694;0.4538;0.3665;0.2967;
29.7240;0.4439;-0.4854;1.4694;0.5410;0.3665;0.2618;
29.7260;-0.9359;-1.2487;1.7500;0.5410;0.3665;0.2618;
29.7870;-0.9359;-1.2487;1.7500;0.5410;0.3665;0.2618;
29.7890;-0.9359;-1.2487;1.7500;0.5410;0.3665;0.2618;
29.7900;-0.9359;-1.2487;1.7500;0.5236;0.2443;0.1047;
29.7910;-4.6703;-1.3590;0.3266;0.5236;0.2443;0.1047;
29.8520;-4.6703;-1.3590;0.3266;0.5236;0.2443;0.1047;
29.8550;-4.6703;-1.3590;0.3266;0.5236;0.2443;0.1047;
29.8560;-4.6703;-1.3590;0.3266;0.4189;0.0524;-0.0349;
29.8570;0.9932;-2.4606;2.3299;0.4189;0.0524;-0.0349;
29.9180;0.9932;-2.4606;2.3299;0.4189;0.0524;-0.0349;
29.9200;0.9932;-2.4606;2.3299;0.4189;0.0524;-0.0349;
29.9210;0.9932;-2.4606;2.3299;0.3665;-0.1396;-0.1745;
29.9220;3.8955;-3.4048;1.3614;0.3665;-0.1396;-0.1745;
29.9840;3.8955;-3.4048;1.3614;0.3665;-0.1396;-0.1745;
29.9860;3.8955;-3.4048;1.3614;0.3665;-0.1396;-0.1745;
29.9870;3.8955;-3.4048;1.3614;0.3316;-0.2618;-0.2094;
29.9880;3.0197;-2.1857;3.9668;0.3316;-0.2618;-0.2094;
30.0500;3.0197;-2.1857;3.9668;0.3316;-0.2618;-0.2094;
30.0530;3.0197;-2.1857;3.9668;0.3316;-0.2618;-0.2094;
30.0540;3.0197;-2.1857;3.9668;-0.1745;-0.2967;-0.7854;
30.0550;0.3395;0.8403;-1.1843;-0.1745;-0.2967;-0.7854;
30.1170;0.3395;0.8403;-1.1843;-0.1745;-0.2967;-0.7854;
30.1190;0.3395;0.8403;-1.1843;-0.1745;-0.2967;-0.7854;
30.1200;0.3395;0.8403;-1.1843;-1.2740;-0.2443;-1.9896;
30.1220;1.2854;3.2381;1.2693;-1.2740;-0.2443;-1.9896;
30.1830;1.2854;3.2381;1.2693;-1.2740;-0.2443;-1.9896;
30.1850;1.2854;3.2381;1.2693;-1.2740;-0.2443;-1.9896;
30.1860;1.2854;3.2381;1.2693;-1.3613;-0.2967;-2.0943;
30.1870;3.2906;4.2617;-0.5555;-1.3613;-0.2967;-2.0943;
30.2480;3.2906;4.2617;-0.5555;-1.3613;-0.2967;-2.0943;
30.2510;3.2906;4.2617;-0.5555;-1.3613;-0.2967;-2.0943;
30.2520;3.2906;4.2617;-0.5555;-0.9773;-0.3490;-1.5707;
30.2530;-3.5489;-1.9904;-6.8894;-0.9773;-0.3490;-1.5707;
30.3140;-3.5489;-1.9904;-6.8894;-0.9773;-0.3490;-1.5707;
30.3180;-3.5489;-1.9904;-6.8894;-0.9773;-0.3490;-1.5707;
30.3190;-3.5489;-1.9904;-6.8894;-0.0524;-0.3840;-0.4189;
30.3200;-4.4205;1.5609;-2.2601;-0.0524;-0.3840;-0.4189;
30.4180;-4.4205;1.5609;-2.2601;-0.0524;-0.3840;-0.4189;
30.4190;-4.4205;1.5609;-2.2601;0.6108;-0.2967;0.8203;
30.4210;4.1363;-8.6048;-5.1806;0.6108;-0.2967;0.8203;
30.4220;4.1363;-8.6048;-5.1806;0.6108;-0.2967;0.8203;
30.4510;4.1363;-8.6048;-5.1806;0.6108;-0.2967;0.8203;
30.4540;4.1363;-8.6048;-5.1806;0.6108;-0.2967;0.8203;
30.4550;4.1363;-8.6048;-5.1806;0.5061;-0.2967;0.8203;
30.4560;2.3984;4.8977;3.8503;0.5061;-0.2967;0.8203;
30.5120;2.3984;4.8977;3.8503;0.5061;-0.2967;0.8203;
30.5140;2.3984;4.8977;3.8503;0.5061;-0.2967;0.8203;
30.5150;2.3984;4.8977;3.8503;0.2792;-0.2967;0.6806;
30.5160;1.8180;0.4185;2.0743;0.2792;-0.2967;0.6806;
30.5780;1.8180;0.4185;2.0743;0.2792;-0.2967;0.6806;
30.5800;1.8180;0.4185;2.0743;0.2792;-0.2967;0.6806;
30.5810;1.8180;0.4185;2.0743;-0.6283;-0.3316;-0.4538;
30.5820;-1.9617;1.4916;-1.8604;-0.6283;-0.3316;-0.4538;
30.6440;-1.9617;1.4916;-1.8604;-0.6283;-0.3316;-0.4538;
30.6470;-1.9617;1.4916;-1.8604;-0.6283;-0.3316;-0.4538;
30.6500;-1.9617;1.4916;-1.8604;-0.4712;-0.1396;-0.3665;
30.6510;1.2007;-0.0925;2.8138;-0.4712;-0.1396;-0.3665;
30.7110;1.2007;-0.0925;2.8138;-0.4712;-0.1396;-0.3665;
30.7130;1.2007;-0.0925;2.8138;-0.4712;-0.1396;-0.3665;
30.7140;1.2007;-0.0925;2.8138;-0.0349;0.0872;-0.0698;
30.7160;-1.5945;0.7687;0.7664;-0.0349;0.0872;-0.0698;
30.7770;-1.5945;0.7687;0.7664;-0.0349;0.0872;-0.0698;
30.7790;-1.5945;0.7687;0.7664;-0.0349;0.0872;-0.0698;
30.7800;-1.5945;0.7687;0.7664;0.3141;0.2618;0.1571;
30.7820;-0.0611;1.2491;0.7272;0.3141;0.2618;0.1571;
30.8420;-0.0611;1.2491;0.7272;0.3141;0.2618;0.1571;
30.8440;-0.0611;1.2491;0.7272;0.3141;0.2618;0.1571;
30.8450;-0.0611;1.2491;0.7272;0.4189;0.2618;0.1571;
30.8460;0.8296;-1.2533;-1.0251;0.4189;0.2618;0.1571;
30.9090;0.8296;-1.2533;-1.0251;0.4189;0.2618;0.1571;
30.9110;0.8296;-1.2533;-1.0251;0.4189;0.2618;0.1571;
30.9120;0.8296;-1.2533;-1.0251;0.4014;0.1047;0.0349;
30.9360;-2.6423;-0.4468;2.5337;0.4014;0.1047;0.0349;
30.9740;-2.6423;-0.4468;2.5337;0.4014;0.1047;0.0349;
30.9770;-2.6423;-0.4468;2.5337;0.4014;0.1047;0.0349;
30.9860;-2.6423;-0.4468;2.5337;0.3316;-0.0698;-0.0524;
30.9870;-3.1976;-1.7148;0.1493;0.3316;-0.0698;-0.0524;
31.0400;-3.1976;-1.7148;0.1493;0.3316;-0.0698;-0.0524;
31.0630;-3.1976;-1.7148;0.1493;0.3316;-0.0698;-0.0524;
31.0650;-3.1976;-1.7148;0.1493;0.3316;-0.2443;-0.1571;
31.0670;1.1826;-1.9842;-0.1238;0.3316;-0.2443;-0.1571;
31.1140;1.1826;-1.9842;-0.1238;0.3316;-0.2443;-0.1571;
31.1150;1.1826;-1.9842;-0.1238;0.3316;-0.2443;-0.1571;
31.1170;1.1826;-1.9842;-0.1238;0.3316;-0.3141;-0.1920;
31.1180;3.5096;-2.7606;2.2160;0.3316;-0.3141;-0.1920;
31.1940;3.5096;-2.7606;2.2160;0.3316;-0.3141;-0.1920;
31.1960;3.5096;-2.7606;2.2160;0.3316;-0.3141;-0.2094;
31.1970;2.4399;-2.2516;3.0790;0.3316;-0.3141;-0.2094;
31.1980;2.4399;-2.2516;3.0790;0.3316;-0.3141;-0.2094;
31.2410;2.4399;-2.2516;3.0790;0.3316;-0.3141;-0.2094;
31.2420;2.4399;-2.2516;3.0790;0.3316;-0.3141;-0.2094;
31.2430;2.4399;-2.2516;3.0790;0.2967;-0.2094;-0.1396;
31.2440;-1.6382;0.9218;-0.5132;0.2967;-0.2094;-0.1396;
31.3210;-1.6382;0.9218;-0.5132;0.2967;-0.2094;-0.1396;
31.3220;-1.6382;0.9218;-0.5132;-0.8203;-0.1047;-1.0123;
31.3230;0.0961;2.2727;0.3186;-0.8203;-0.1047;-1.0123;
31.3240;0.0961;2.2727;0.3186;-0.8203;-0.1047;-1.0123;
31.3700;0.0961;2.2727;0.3186;-0.8203;-0.1047;-1.0123;
31.3720;0.0961;2.2727;0.3186;-0.8203;-0.1047;-1.0123;
31.3730;0.0961;2.2727;0.3186;-1.3613;-0.0698;-1.5184;
31.3750;3.8579;5.0185;-0.1609;-1.3613;-0.0698;-1.5184;
31.4480;3.8579;5.0185;-0.1609;-1.3613;-0.0698;-1.5184;
31.4490;3.8579;5.0185;-0.1609;-1.3613;-0.0698;-1.5184;
31.4510;3.8579;5.0185;-0.1609;-1.4311;-0.0698;-1.6405;
31.4520;-0.2893;1.4125;-3.1100;-1.4311;-0.0698;-1.6405;
31.5020;-0.2893;1.4125;-3.1100;-1.4311;-0.0698;-1.6405;
31.5050;-0.2893;1.4125;-3.1100;-1.4311;-0.0698;-1.6405;
31.5060;-0.2893;1.4125;-3.1100;-0.1047;-0.1222;-0.2967;
31.5070;-5.9353;0.7535;-3.7394;-0.1047;-0.1222;-0.2967;
31.5780;-5.9353;0.7535;-3.7394;-0.1047;-0.1222;-0.2967;
31.5790;-5.9353;0.7535;-3.7394;-0.1047;-0.1222;-0.2967;
31.5800;-5.9353;0.7535;-3.7394;0.8726;-0.1047;1.0472;
31.5810;-2.6391;3.6265;-0.6360;0.8726;-0.1047;1.0472;
31.6340;-2.6391;3.6265;-0.6360;0.8726;-0.1047;1.0472;
31.6360;-2.6391;3.6265;-0.6360;0.8726;-0.1047;1.0472;
31.6370;-2.6391;3.6265;-0.6360;0.7156;-0.1222;1.0297;
31.6380;2.7419;-1.3163;-0.1419;0.7156;-0.1222;1.0297;
31.7030;2.7419;-1.3163;-0.1419;0.7156;-0.1222;1.0297;
31.7040;2.7419;-1.3163;-0.1419;0.7156;-0.1222;1.0297;
31.7050;2.7419;-1.3163;-0.1419;0.4363;-0.2094;0.7156;
31.7060;5.6170;1.9377;2.4899;0.4363;-0.2094;0.7156;
31.7660;5.6170;1.9377;2.4899;0.4363;-0.2094;0.7156;
31.7680;5.6170;1.9377;2.4899;0.4363;-0.2094;0.7156;
31.7690;5.6170;1.9377;2.4899;-0.6632;-0.2618;-0.7854;
31.7700;2.4434;-2.4599;0.8779;-0.6632;-0.2618;-0.7854;
31.8350;2.4434;-2.4599;0.8779;-0.6632;-0.2618;-0.7854;
31.8370;2.4434;-2.4599;0.8779;-0.6632;-0.2618;-0.7854;
31.8380;2.4434;-2.4599;0.8779;-0.5759;-0.2269;-0.7854;
31.8380;-2.7989;2.8178;1.5636;-0.5759;-0.2269;-0.7854;
31.8980;-2.7989;2.8178;1.5636;-0.5759;-0.2269;-0.7854;
31.9000;-2.7989;2.8178;1.5636;-0.5759;-0.2269;-0.7854;
31.9010;-2.7989;2.8178;1.5636;-0.1222;-0.0524;-0.3316;
31.9020;-1.3288;-0.5545;1.4584;-0.1222;-0.0524;-0.3316;
31.9640;-1.3288;-0.5545;1.4584;-0.1222;-0.0524;-0.3316;
31.9670;-1.3288;-0.5545;1.4584;-0.1222;-0.0524;-0.3316;
31.9680;-1.3288;-0.5545;1.4584;0.2967;0.1047;0.2094;
31.9690;-0.4137;1.2502;-1.2139;0.2967;0.1047;0.2094;
32.0300;-0.4137;1.2502;-1.2139;0.2967;0.1047;0.2094;
32.0330;-0.4137;1.2502;-1.2139;0.2967;0.1047;0.2094;
32.0340;-0.4137;1.2502;-1.2139;0.5236;0.1745;0.4189;
32.0350;-2.5985;0.8906;-0.3111;0.5236;0.1745;0.4189;
32.0970;-2.5985;0.8906;-0.3111;0.5236;0.1745;0.4189;
32.0990;-2.5985;0.8906;-0.3111;0.5236;0.1745;0.4189;
32.1010;-2.5985;0.8906;-0.3111;0.6108;0.1571;0.3665;
32.1020;-1.4732;-1.6277;1.4917;0.6108;0.1571;0.3665;
32.1620;-1.4732;-1.6277;1.4917;0.6108;0.1571;0.3665;
32.1650;-1.4732;-1.6277;1.4917;0.6108;0.1571;0.3665;
32.1660;-1.4732;-1.6277;1.4917;0.5585;-0.0349;0.0174;
32.1670;-4.3691;-1.7648;-0.2818;0.5585;-0.0349;0.0174;
32.2280;-4.3691;-1.7648;-0.2818;0.5585;-0.0349;0.0174;
32.2310;-4.3691;-1.7648;-0.2818;0.5585;-0.0349;0.0174;
32.2310;-4.3691;-1.7648;-0.2818;0.4538;-0.2094;-0.1745;
32.2330;-0.7862;0.6918;0.9772;0.4538;-0.2094;-0.1745;
32.2940;-0.7862;0.6918;0.9772;0.4538;-0.2094;-0.1745;
32.2970;-0.7862;0.6918;0.9772;0.4538;-0.2094;-0.1745;
32.2980;-0.7862;0.6918;0.9772;-1.7104;-0.2094;-1.9896;
32.3000;3.3328;-4.7088;2.1570;-1.7104;-0.2094;-1.9896;
32.3600;3.3328;-4.7088;2.1570;-1.7104;-0.2094;-1.9896;
32.3630;3.3328;-4.7088;2.1570;-1.7104;-0.2094;-1.9896;
32.3630;3.3328;-4.7088;2.1570;-1.8325;-0.1396;-1.9373;
32.3640;1.4214;-2.0931;1.0469;-1.8325;-0.1396;-1.9373;
32.4260;1.4214;-2.0931;1.0469;-1.8325;-0.1396;-1.9373;
32.4280;1.4214;-2.0931;1.0469;-1.8325;-0.1396;-1.9373;
32.4290;1.4214;-2.0931;1.0469;-1.9023;-0.0524;-1.8151;
32.4300;-1.2208;1.2105;-0.6273;-1.9023;-0.0524;-1.8151;
32.5090;-1.2208;1.2105;-0.6273;-1.9023;-0.0524;-1.8151;
32.5100;-1.2208;1.2105;-0.6273;-1.9023;-0.0524;-1.8151;
32.5120;-1.2208;1.2105;-0.6273;-0.0349;-0.1571;-0.2269;
32.5200;2.8519;3.1182;0.9221;-0.0349;-0.1571;-0.2269;
32.5580;2.8519;3.1182;0.9221;-0.0349;-0.1571;-0.2269;
32.5600;2.8519;3.1182;0.9221;-0.0349;-0.1571;-0.2269;
32.5620;2.8519;3.1182;0.9221;-0.0524;-0.2967;-0.2967;
32.5630;5.6786;5.5685;0.1077;-0.0524;-0.2967;-0.2967;
32.6240;5.6786;5.5685;0.1077;-0.0524;-0.2967;-0.2967;
32.6270;5.6786;5.5685;0.1077;-0.0524;-0.2967;-0.2967;
32.6280;5.6786;5.5685;0.1077;-0.0698;-0.3316;-0.3665;
32.6290;-3.9063;-2.2149;-11.8235;-0.0698;-0.3316;-0.3665;
32.6910;-3.9063;-2.2149;-11.8235;-0.0698;-0.3316;-0.3665;
32.6930;-3.9063;-2.2149;-11.8235;-0.0698;-0.3316;-0.3665;
32.6940;-3.9063;-2.2149;-11.8235;1.1344;-0.1745;0.9773;
32.6960;-1.7949;4.2612;1.0253;1.1344;-0.1745;0.9773;
32.7580;-1.7949;4.2612;1.0253;1.1344;-0.1745;0.9773;
32.7590;-1.7949;4.2612;1.0253;1.1344;-0.1745;0.9773;
32.7610;-1.7949;4.2612;1.0253;1.0123;0.0000;1.2217;
32.7620;0.5696;-7.0787;-3.5991;1.0123;0.0000;1.2217;
32.8230;0.5696;-7.0787;-3.5991;1.0123;0.0000;1.2217;
32.8250;0.5696;-7.0787;-3.5991;1.0123;0.0000;1.2217;
32.8260;0.5696;-7.0787;-3.5991;0.6806;0.0698;1.2566;
32.8280;2.9821;4.2422;5.2856;0.6806;0.0698;1.2566;
32.9150;2.9821;4.2422;5.2856;0.6806;0.0698;1.2566;
32.9160;2.9821;4.2422;5.2856;-0.4189;0.0698;0.3490;
32.9170;2.3944;1.7327;0.6353;-0.4189;0.0698;0.3490;
32.9180;2.3944;1.7327;0.6353;-0.4189;0.0698;0.3490;
32.9560;2.3944;1.7327;0.6353;-0.4189;0.0698;0.3490;
32.9570;2.3944;1.7327;0.6353;-0.4189;0.0698;0.3490;
32.9590;2.3944;1.7327;0.6353;-0.9599;0.0349;-0.2618;
32.9600;-1.1633;1.2690;-1.8454;-0.9599;0.0349;-0.2618;
33.0200;-1.1633;1.2690;-1.8454;-0.9599;0.0349;-0.2618;
33.0230;-1.1633;1.2690;-1.8454;-0.9599;0.0349;-0.2618;
33.0240;-1.1633;1.2690;-1.8454;-0.4887;0.0872;-0.2792;
33.0250;3.0574;-0.5988;3.5323;-0.4887;0.0872;-0.2792;
33.0870;3.0574;-0.5988;3.5323;-0.4887;0.0872;-0.2792;
33.0890;3.0574;-0.5988;3.5323;-0.4887;0.0872;-0.2792;
33.1160;3.0574;-0.5988;3.5323;0.0000;0.2269;-0.0524;
33.1170;-0.3722;0.3495;-1.8629;0.0000;0.2269;-0.0524;
33.1520;-0.3722;0.3495;-1.8629;0.0000;0.2269;-0.0524;
33.1580;-0.3722;0.3495;-1.8629;0.0000;0.2269;-0.0524;
33.1590;-0.3722;0.3495;-1.8629;0.2967;0.3316;0.1047;
33.1610;-0.1181;-1.0582;2.8943;0.2967;0.3316;0.1047;
33.2420;-0.1181;-1.0582;2.8943;0.2967;0.3316;0.1047;
33.2430;-0.1181;-1.0582;2.8943;0.4887;0.3316;0.1571;
33.2440;-3.4706;-0.4825;0.3966;0.4887;0.3316;0.1571;
33.2520;-3.4706;-0.4825;0.3966;0.4887;0.3316;0.1571;
33.2890;-3.4706;-0.4825;0.3966;0.4887;0.3316;0.1571;
33.2910;-3.4706;-0.4825;0.3966;0.5585;0.2792;0.1396;
33.2920;-3.3981;-0.4800;0.3343;0.5585;0.2792;0.1396;
33.2930;-3.3981;-0.4800;0.3343;0.5585;0.2792;0.1396;
33.3690;-3.3981;-0.4800;0.3343;0.5585;0.2792;0.1396;
33.3700;-3.3981;-0.4800;0.3343;0.5934;0.1047;0.0524;
33.3720;1.5277;-0.5464;0.4186;0.5934;0.1047;0.0524;
33.3730;1.5277;-0.5464;0.4186;0.5934;0.1047;0.0524;
33.4180;1.5277;-0.5464;0.4186;0.5934;0.1047;0.0524;
33.4190;1.5277;-0.5464;0.4186;0.5934;0.1047;0.0524;
33.4200;1.5277;-0.5464;0.4186;-0.4887;0.0174;-1.1344;
33.4220;5.7536;-7.8632;3.2103;-0.4887;0.0174;-1.1344;
33.4980;5.7536;-7.8632;3.2103;-0.4887;0.0174;-1.1344;
33.4990;5.7536;-7.8632;3.2103;-1.1344;0.0174;-1.7278;
33.5000;1.0616;1.0454;-0.4786;-1.1344;0.0174;-1.7278;
33.5010;1.0616;1.0454;-0.4786;-1.1344;0.0174;-1.7278;
33.5530;1.0616;1.0454;-0.4786;-1.1344;0.0174;-1.7278;
33.5540;1.0616;1.0454;-0.4786;-1.2915;0.0000;-1.7453;
33.5560;-0.7673;2.3899;-0.7382;-1.2915;0.0000;-1.7453;
33.5560;-0.7673;2.3899;-0.7382;-1.2915;0.0000;-1.7453;
33.6170;-0.7673;2.3899;-0.7382;-1.2915;0.0000;-1.7453;
33.6180;-0.7673;2.3899;-0.7382;-1.2915;0.0000;-1.7453;
33.6190;-0.7673;2.3899;-0.7382;-0.9250;-0.1745;-1.3089;
33.6190;1.4007;3.3444;1.9707;-0.9250;-0.1745;-1.3089;
33.6810;1.4007;3.3444;1.9707;-0.9250;-0.1745;-1.3089;
33.6830;1.4007;3.3444;1.9707;-0.9250;-0.1745;-1.3089;
33.6840;1.4007;3.3444;1.9707;-0.0524;-0.5934;-0.5236;
33.6860;3.2993;5.1090;-0.8257;-0.0524;-0.5934;-0.5236;
33.7560;3.2993;5.1090;-0.8257;-0.0524;-0.5934;-0.5236;
33.7570;3.2993;5.1090;-0.8257;-0.0524;-0.5934;-0.5236;
33.7580;3.2993;5.1090;-0.8257;-0.1222;-0.7330;-0.5934;
33.7590;-7.2753;-1.1376;-5.8351;-0.1222;-0.7330;-0.5934;
33.8120;-7.2753;-1.1376;-5.8351;-0.1222;-0.7330;-0.5934;
33.8140;-7.2753;-1.1376;-5.8351;-0.1222;-0.7330;-0.5934;
33.8160;-7.2753;-1.1376;-5.8351;-0.1745;-0.6981;-0.4712;
33.8170;-2.8856;-1.3536;3.0754;-0.1745;-0.6981;-0.4712;
33.9010;-2.8856;-1.3536;3.0754;-0.1745;-0.6981;-0.4712;
33.9050;-2.8856;-1.3536;3.0754;0.1222;-0.5410;0.0000;
33.9060;4.3624;-5.8670;-3.9830;0.1222;-0.5410;0.0000;
33.9070;4.3624;-5.8670;-3.9830;0.1222;-0.5410;0.0000;
33.9440;4.3624;-5.8670;-3.9830;0.1222;-0.5410;0.0000;
33.9460;4.3624;-5.8670;-3.9830;0.1222;-0.5410;0.0000;
33.9480;4.3624;-5.8670;-3.9830;0.7854;-0.2618;0.7330;
33.9490;-0.0590;3.5752;3.6576;0.7854;-0.2618;0.7330;
34.0110;-0.0590;3.5752;3.6576;0.7854;-0.2618;0.7330;
34.0130;-0.0590;3.5752;3.6576;0.7854;-0.2618;0.7330;
34.0140;-0.0590;3.5752;3.6576;0.5934;-0.1396;0.4887;
34.0160;1.1113;-0.5372;3.6831;0.5934;-0.1396;0.4887;
34.0770;1.1113;-0.5372;3.6831;0.5934;-0.1396;0.4887;
34.0790;1.1113;-0.5372;3.6831;0.5934;-0.1396;0.4887;
34.0800;1.1113;-0.5372;3.6831;0.2443;-0.0349;0.0698;
34.0820;0.1651;1.2917;-5.5458;0.2443;-0.0349;0.0698;
34.1420;0.1651;1.2917;-5.5458;0.2443;-0.0349;0.0698;
34.1460;0.1651;1.2917;-5.5458;0.2443;-0.0349;0.0698;
34.1470;0.1651;1.2917;-5.5458;-0.2094;0.0872;-0.3840;
34.1480;0.5213;-0.0302;4.0527;-0.2094;0.0872;-0.3840;
34.2080;0.5213;-0.0302;4.0527;-0.2094;0.0872;-0.3840;
34.2110;0.5213;-0.0302;4.0527;-0.2094;0.0872;-0.3840;
34.2120;0.5213;-0.0302;4.0527;0.0349;0.2967;-0.1047;
34.2130;-1.5560;0.4734;-5.0483;0.0349;0.2967;-0.1047;
34.2750;-1.5560;0.4734;-5.0483;0.0349;0.2967;-0.1047;
34.2770;-1.5560;0.4734;-5.0483;0.0349;0.2967;-0.1047;
34.2790;-1.5560;0.4734;-5.0483;0.3141;0.4538;0.1920;
34.2800;1.7510;-0.8259;3.7833;0.3141;0.4538;0.1920;
34.3410;1.7510;-0.8259;3.7833;0.3141;0.4538;0.1920;
34.3430;1.7510;-0.8259;3.7833;0.3141;0.4538;0.1920;
34.3440;1.7510;-0.8259;3.7833;-0.1396;0.4014;-0.2792;
34.3460;-4.3970;-0.1967;0.5914;-0.1396;0.4014;-0.2792;
34.4070;-4.3970;-0.1967;0.5914;-0.1396;0.4014;-0.2792;
34.4090;-4.3970;-0.1967;0.5914;-0.1396;0.4014;-0.2792;
34.4100;-4.3970;-0.1967;0.5914;-1.1170;0.2618;-1.4137;
34.4120;-4.7988;-1.8989;-0.8721;-1.1170;0.2618;-1.4137;
34.4730;-4.7988;-1.8989;-0.8721;-1.1170;0.2618;-1.4137;
34.4770;-4.7988;-1.8989;-0.8721;-1.1170;0.2618;-1.4137;
34.4790;-4.7988;-1.8989;-0.8721;-1.2391;0.1222;-1.5184;
34.4810;0.0808;-0.8105;1.4233;-1.2391;0.1222;-1.5184;
34.6010;0.0808;-0.8105;1.4233;-1.2391;0.1222;-1.5184;
34.6020;0.0808;-0.8105;1.4233;0.0000;0.1222;0.2618;
34.6030;0.0808;-0.8105;1.4233;0.0000;0.1222;0.2618;
34.6040;4.5748;-3.5723;1.9940;0.0000;0.1222;0.2618;
34.6050;4.5748;-3.5723;1.9940;0.0000;0.1222;0.2618;
34.6060;4.5748;-3.5723;1.9940;0.0000;0.1222;0.2618;
34.6070;4.5748;-3.5723;1.9940;0.0000;0.1222;0.2618;
34.6080;4.5748;-3.5723;1.9940;0.0000;0.1222;0.2618;
34.6710;4.5748;-3.5723;1.9940;0.0000;0.1222;0.2618;
34.6730;4.5748;-3.5723;1.9940;0.0000;0.1222;0.2618;
34.6740;4.5748;-3.5723;1.9940;0.0000;0.1047;0.3316;
34.6750;-0.0924;1.4699;-2.2942;0.0000;0.1047;0.3316;
34.7360;-0.0924;1.4699;-2.2942;0.0000;0.1047;0.3316;
34.7380;-0.0924;1.4699;-2.2942;0.0000;0.1047;0.3316;
34.7390;-0.0924;1.4699;-2.2942;0.0000;-0.1047;0.1396;
34.7400;-0.7032;3.4184;-0.4587;0.0000;-0.1047;0.1396;
34.8020;-0.7032;3.4184;-0.4587;0.0000;-0.1047;0.1396;
34.8040;-0.7032;3.4184;-0.4587;0.0000;-0.1047;0.1396;
34.8050;-0.7032;3.4184;-0.4587;-0.0174;-0.4363;-0.2443;
34.8060;2.6210;4.4979;-0.2788;-0.0174;-0.4363;-0.2443;
34.8690;2.6210;4.4979;-0.2788;-0.0174;-0.4363;-0.2443;
34.8710;2.6210;4.4979;-0.2788;-0.0174;-0.4363;-0.2443;
34.8730;2.6210;4.4979;-0.2788;-0.0872;-0.6632;-0.5236;
34.8740;-3.6927;1.4016;-3.7413;-0.0872;-0.6632;-0.5236;
34.9350;-3.6927;1.4016;-3.7413;-0.0872;-0.6632;-0.5236;
34.9370;-3.6927;1.4016;-3.7413;-0.0872;-0.6632;-0.5236;
34.9380;-3.6927;1.4016;-3.7413;0.0524;-0.6283;-0.2269;
34.9400;-3.2475;2.0555;-1.9804;0.0524;-0.6283;-0.2269;
35.0030;-3.2475;2.0555;-1.9804;0.0524;-0.6283;-0.2269;
35.0090;-3.2475;2.0555;-1.9804;0.0524;-0.6283;-0.2269;
35.0330;-3.2475;2.0555;-1.9804;0.7156;-0.3840;0.6283;
35.0340;4.5516;-4.8780;-2.9279;0.7156;-0.3840;0.6283;
35.0660;4.5516;-4.8780;-2.9279;0.7156;-0.3840;0.6283;
35.0690;4.5516;-4.8780;-2.9279;0.7156;-0.3840;0.6283;
35.0690;4.5516;-4.8780;-2.9279;0.5410;-0.2443;0.5934;
35.0700;1.6454;1.4946;0.5888;0.5410;-0.2443;0.5934;
35.1320;1.6454;1.4946;0.5888;0.5410;-0.2443;0.5934;
35.1340;1.6454;1.4946;0.5888;0.5410;-0.2443;0.5934;
35.1360;1.6454;1.4946;0.5888;0.2792;-0.1396;0.3840;
35.1600;1.0800;1.4800;4.0110;0.2792;-0.1396;0.3840;
35.1980;1.0800;1.4800;4.0110;0.2792;-0.1396;0.3840;
35.2000;1.0800;1.4800;4.0110;0.2792;-0.1396;0.3840;
35.2070;1.0800;1.4800;4.0110;-0.8901;-0.1396;-0.5236;
35.2080;-0.9529;-1.2001;1.3256;-0.8901;-0.1396;-0.5236;
35.2880;-0.9529;-1.2001;1.3256;-0.8901;-0.1396;-0.5236;
35.2890;-0.9529;-1.2001;1.3256;-0.8901;-0.1396;-0.5236;
35.2900;-0.9529;-1.2001;1.3256;-0.7679;0.0000;-0.3840;
35.2910;-0.4137;2.4208;-3.5155;-0.7679;0.0000;-0.3840;
35.3350;-0.4137;2.4208;-3.5155;-0.7679;0.0000;-0.3840;
35.3370;-0.4137;2.4208;-3.5155;-0.7679;0.0000;-0.3840;
35.3380;-0.4137;2.4208;-3.5155;-0.2792;0.1745;0.0349;
35.3390;2.5054;-0.0959;4.3750;-0.2792;0.1745;0.0349;
35.4200;2.5054;-0.0959;4.3750;-0.2792;0.1745;0.0349;
35.4210;2.5054;-0.0959;4.3750;0.2094;0.3316;0.3141;
35.4220;0.0234;0.1151;-5.0238;0.2094;0.3316;0.3141;
35.4230;0.0234;0.1151;-5.0238;0.2094;0.3316;0.3141;
35.4630;0.0234;0.1151;-5.0238;0.2094;0.3316;0.3141;
35.4650;0.0234;0.1151;-5.0238;0.2094;0.3316;0.3141;
35.4660;0.0234;0.1151;-5.0238;0.5061;0.3665;0.2967;
35.4670;-0.0359;-0.8532;1.2890;0.5061;0.3665;0.2967;
35.6040;-0.0359;-0.8532;1.2890;0.5061;0.3665;0.2967;
35.6050;-0.0359;-0.8532;1.2890;0.6283;0.2618;0.1745;
35.6060;-2.9026;-0.0076;1.3642;0.6283;0.2618;0.1745;
35.6070;-2.9026;-0.0076;1.3642;0.6283;0.2618;0.1745;
35.6080;-2.9026;-0.0076;1.3642;0.6283;0.2618;0.1745;
35.6090;-2.9026;-0.0076;1.3642;0.6283;0.2618;0.1745;
35.6110;-2.9026;-0.0076;1.3642;0.6632;0.1047;0.1047;
35.6120;-4.7398;-1.7269;0.2688;0.6632;0.1047;0.1047;
35.6610;-4.7398;-1.7269;0.2688;0.6632;0.1047;0.1047;
35.6620;-4.7398;-1.7269;0.2688;0.6632;0.1047;0.1047;
35.6630;-4.7398;-1.7269;0.2688;-0.0349;-0.1047;-0.5934;
35.6640;0.6375;-0.0793;1.9933;-0.0349;-0.1047;-0.5934;
35.7260;0.6375;-0.0793;1.9933;-0.0349;-0.1047;-0.5934;
35.7280;0.6375;-0.0793;1.9933;-0.0349;-0.1047;-0.5934;
35.7290;0.6375;-0.0793;1.9933;-1.2217;-0.1571;-1.4835;
35.7300;4.2487;-4.0112;3.2773;-1.2217;-0.1571;-1.4835;
35.7940;4.2487;-4.0112;3.2773;-1.2217;-0.1571;-1.4835;
35.7950;4.2487;-4.0112;3.2773;-1.2217;-0.1571;-1.4835;
35.7960;4.2487;-4.0112;3.2773;-1.3788;-0.1745;-1.3613;
35.7960;0.5995;-0.5248;-0.7390;-1.3788;-0.1745;-1.3613;
35.8580;0.5995;-0.5248;-0.7390;-1.3788;-0.1745;-1.3613;
35.8600;0.5995;-0.5248;-0.7390;-1.3788;-0.1745;-1.3613;
35.8610;0.5995;-0.5248;-0.7390;-0.9075;-0.1745;-0.7330;
35.8620;-0.4412;1.3463;-0.8494;-0.9075;-0.1745;-0.7330;
35.9250;-0.4412;1.3463;-0.8494;-0.9075;-0.1745;-0.7330;
35.9310;-0.4412;1.3463;-0.8494;-0.9075;-0.1745;-0.7330;
35.9320;-0.4412;1.3463;-0.8494;-0.0349;-0.2967;-0.1222;
35.9340;0.0382;2.4417;-0.0916;-0.0349;-0.2967;-0.1222;
35.9910;0.0382;2.4417;-0.0916;-0.0349;-0.2967;-0.1222;
35.9920;0.0382;2.4417;-0.0916;-0.0349;-0.2967;-0.1222;
35.9930;0.0382;2.4417;-0.0916;-0.0698;-0.4712;-0.3141;
35.9940;1.1162;4.6656;-0.1053;-0.0698;-0.4712;-0.3141;
36.0580;1.1162;4.6656;-0.1053;-0.0698;-0.4712;-0.3141;
36.0590;1.1162;4.6656;-0.1053;-0.0698;-0.4712;-0.3141;
36.0600;1.1162;4.6656;-0.1053;-0.1745;-0.5236;-0.4712;
36.0620;-7.6793;-2.3017;-8.1375;-0.1745;-0.5236;-0.4712;
36.1220;-7.6793;-2.3017;-8.1375;-0.1745;-0.5236;-0.4712;
36.1240;-7.6793;-2.3017;-8.1375;-0.1745;-0.5236;-0.4712;
36.1260;-7.6793;-2.3017;-8.1375;0.1222;-0.4189;-0.1396;
36.1270;-1.8773;1.5593;-3.2698;0.1222;-0.4189;-0.1396;
36.1900;-1.8773;1.5593;-3.2698;0.1222;-0.4189;-0.1396;
36.1920;-1.8773;1.5593;-3.2698;0.1222;-0.4189;-0.1396;
36.1930;-1.8773;1.5593;-3.2698;0.7505;-0.2618;0.5410;
36.1960;3.7334;-5.8108;-2.5780;0.7505;-0.2618;0.5410;
36.2540;3.7334;-5.8108;-2.5780;0.7505;-0.2618;0.5410;
36.2570;3.7334;-5.8108;-2.5780;0.7505;-0.2618;0.5410;
36.2580;3.7334;-5.8108;-2.5780;0.6108;-0.1745;0.4887;
36.2590;1.6355;6.2018;4.8535;0.6108;-0.1745;0.4887;
36.3210;1.6355;6.2018;4.8535;0.6108;-0.1745;0.4887;
36.3230;1.6355;6.2018;4.8535;0.6108;-0.1745;0.4887;
36.3250;1.6355;6.2018;4.8535;0.3665;-0.1222;0.2967;
36.3260;0.8501;-1.3343;2.5113;0.3665;-0.1222;0.2967;
36.3870;0.8501;-1.3343;2.5113;0.3665;-0.1222;0.2967;
36.3890;0.8501;-1.3343;2.5113;0.3665;-0.1222;0.2967;
36.3900;0.8501;-1.3343;2.5113;-0.7156;-0.0698;-0.4712;
36.3920;-0.0794;1.5770;-5.4144;-0.7156;-0.0698;-0.4712;
36.4530;-0.0794;1.5770;-5.4144;-0.7156;-0.0698;-0.4712;
36.4590;-0.0794;1.5770;-5.4144;-0.7156;-0.0698;-0.4712;
36.4610;-0.0794;1.5770;-5.4144;-0.6108;0.0349;-0.3840;
36.4620;3.2198;-0.6625;6.3538;-0.6108;0.0349;-0.3840;
36.5190;3.2198;-0.6625;6.3538;-0.6108;0.0349;-0.3840;
36.5210;3.2198;-0.6625;6.3538;-0.6108;0.0349;-0.3840;
36.5220;3.2198;-0.6625;6.3538;0.0698;0.2967;0.0524;
36.5240;-1.8506;0.7567;-3.9243;0.0698;0.2967;0.0524;
36.5850;-1.8506;0.7567;-3.9243;0.0698;0.2967;0.0524;
36.5870;-1.8506;0.7567;-3.9243;0.0698;0.2967;0.0524;
36.5880;-1.8506;0.7567;-3.9243;0.4189;0.3840;0.2094;
36.5900;-0.7626;-0.1582;1.6500;0.4189;0.3840;0.2094;
36.6500;-0.7626;-0.1582;1.6500;0.4189;0.3840;0.2094;
36.6520;-0.7626;-0.1582;1.6500;0.4189;0.3840;0.2094;
36.6530;-0.7626;-0.1582;1.6500;0.5410;0.3665;0.2269;
36.6540;-2.3121;-0.7418;0.9277;0.5410;0.3665;0.2269;
36.7160;-2.3121;-0.7418;0.9277;0.5410;0.3665;0.2269;
36.7180;-2.3121;-0.7418;0.9277;0.5410;0.3665;0.2269;
36.7190;-2.3121;-0.7418;0.9277;0.5410;0.2443;0.2094;
