
time;ax;ay;az;wx;wy;wz;
0.0330;0.7897;-0.8286;0.4325;-0.0524;-0.1222;0.0524;
0.0350;0.7897;-0.8286;0.4325;-0.0524;-0.1222;0.0524;
0.0360;0.7897;-0.8286;0.4325;-0.0698;-0.0872;0.0524;
0.0360;0.7132;-0.6160;0.4816;-0.0698;-0.0872;0.0524;
0.0980;0.7132;-0.6160;0.4816;-0.0698;-0.0872;0.0524;
0.1000;0.7132;-0.6160;0.4816;-0.0698;-0.0872;0.0524;
0.1010;0.7132;-0.6160;0.4816;-0.1047;-0.0349;0.0872;
0.1010;0.4282;-0.0415;-0.8816;-0.1047;-0.0349;0.0872;
0.1640;0.4282;-0.0415;-0.8816;-0.1047;-0.0349;0.0872;
0.1670;0.4282;-0.0415;-0.8816;-0.1047;-0.0349;0.0872;
0.1680;0.4282;-0.0415;-0.8816;-0.1571;0.0000;0.1222;
0.1680;0.7270;-0.3119;1.1624;-0.1571;0.0000;0.1222;
0.2300;0.7270;-0.3119;1.1624;-0.1571;0.0000;0.1222;
0.2330;0.7270;-0.3119;1.1624;-0.1571;0.0000;0.1222;
0.2330;0.7270;-0.3119;1.1624;-0.1571;-0.0174;0.1396;
0.2340;-0.3024;0.2608;-0.8199;-0.1571;-0.0174;0.1396;
0.2970;-0.3024;0.2608;-0.8199;-0.1571;-0.0174;0.1396;
0.2990;-0.3024;0.2608;-0.8199;-0.1571;-0.0174;0.1396;
0.2990;-0.3024;0.2608;-0.8199;-0.1047;-0.0349;0.1222;
0.3000;0.7574;-0.2903;0.6970;-0.1047;-0.0349;0.1222;
0.3620;0.7574;-0.2903;0.6970;-0.1047;-0.0349;0.1222;
0.3650;0.7574;-0.2903;0.6970;-0.1047;-0.0349;0.1222;
0.3650;0.7574;-0.2903;0.6970;-0.0349;-0.0349;0.0872;
0.3660;-1.5303;-0.3707;-0.3715;-0.0349;-0.0349;0.0872;
0.4280;-1.5303;-0.3707;-0.3715;-0.0349;-0.0349;0.0872;
0.4310;-1.5303;-0.3707;-0.3715;-0.0349;-0.0349;0.0872;
0.4310;-1.5303;-0.3707;-0.3715;0.0524;0.0000;0.0000;
0.4320;-1.5495;-0.4796;-1.4930;0.0524;0.0000;0.0000;
0.4940;-1.5495;-0.4796;-1.4930;0.0524;0.0000;0.0000;
0.4970;-1.5495;-0.4796;-1.4930;0.0524;0.0000;0.0000;
0.4970;-1.5495;-0.4796;-1.4930;0.0872;0.0524;-0.0524;
0.4980;-0.3382;-2.9896;1.3774;0.0872;0.0524;-0.0524;
0.5600;-0.3382;-2.9896;1.3774;0.0872;0.0524;-0.0524;
0.5630;-0.3382;-2.9896;1.3774;0.0872;0.0524;-0.0524;
0.5630;-0.3382;-2.9896;1.3774;0.0872;0.1396;-0.0872;
0.5640;3.1498;0.3760;-5.8163;0.0872;0.1396;-0.0872;
0.6300;3.1498;0.3760;-5.8163;0.0872;0.1396;-0.0872;
0.6300;3.1498;0.3760;-5.8163;0.0000;0.2618;-0.0698;
0.6310;1.1500;-4.4394;4.8696;0.0000;0.2618;-0.0698;
0.6320;1.1500;-4.4394;4.8696;0.0000;0.2618;-0.0698;
0.6920;1.1500;-4.4394;4.8696;0.0000;0.2618;-0.0698;
0.6950;1.1500;-4.4394;4.8696;0.0000;0.2618;-0.0698;
0.6950;1.1500;-4.4394;4.8696;-0.1396;0.2443;0.1047;
0.6960;7.7602;-1.0759;-4.1758;-0.1396;0.2443;0.1047;
0.7580;7.7602;-1.0759;-4.1758;-0.1396;0.2443;0.1047;
0.7610;7.7602;-1.0759;-4.1758;-0.1396;0.2443;0.1047;
0.7610;7.7602;-1.0759;-4.1758;-0.2618;0.0000;0.3665;
0.7620;8.4537;-4.2575;-6.7463;-0.2618;0.0000;0.3665;
0.8240;8.4537;-4.2575;-6.7463;-0.2618;0.0000;0.3665;
0.8270;8.4537;-4.2575;-6.7463;-0.2618;0.0000;0.3665;
0.8270;8.4537;-4.2575;-6.7463;-0.3490;-0.5061;0.6632;
0.8280;7.9724;-3.6899;-10.9486;-0.3490;-0.5061;0.6632;
0.8900;7.9724;-3.6899;-10.9486;-0.3490;-0.5061;0.6632;
0.8930;7.9724;-3.6899;-10.9486;-0.3490;-0.5061;0.6632;
0.8940;7.9724;-3.6899;-10.9486;-0.3840;-1.5707;1.0297;
0.8950;1.5627;-3.5162;-6.1685;-0.3840;-1.5707;1.0297;
0.9560;1.5627;-3.5162;-6.1685;-0.3840;-1.5707;1.0297;
0.9590;1.5627;-3.5162;-6.1685;-0.3840;-1.5707;1.0297;
0.9590;1.5627;-3.5162;-6.1685;-0.3490;-2.5132;1.2217;
0.9600;4.3606;-6.1130;-7.1318;-0.3490;-2.5132;1.2217;
1.0220;4.3606;-6.1130;-7.1318;-0.3490;-2.5132;1.2217;
1.0250;4.3606;-6.1130;-7.1318;-0.3490;-2.5132;1.2217;
1.0260;4.3606;-6.1130;-7.1318;-0.2967;-3.2986;1.3439;
1.0260;3.8224;-11.1812;-12.3413;-0.2967;-3.2986;1.3439;
1.0880;3.8224;-11.1812;-12.3413;-0.2967;-3.2986;1.3439;
1.0910;3.8224;-11.1812;-12.3413;-0.2967;-3.2986;1.3439;
1.0910;3.8224;-11.1812;-12.3413;-0.2269;-3.5778;1.4137;
1.0920;-2.6211;-2.0815;-6.3754;-0.2269;-3.5778;1.4137;
1.1540;-2.6211;-2.0815;-6.3754;-0.2269;-3.5778;1.4137;
1.1570;-2.6211;-2.0815;-6.3754;-0.2269;-3.5778;1.4137;
1.1570;-2.6211;-2.0815;-6.3754;-0.2967;-3.3684;1.5009;
1.1580;-0.0974;-4.7103;-2.1093;-0.2967;-3.3684;1.5009;
1.2200;-0.0974;-4.7103;-2.1093;-0.2967;-3.3684;1.5009;
1.2230;-0.0974;-4.7103;-2.1093;-0.2967;-3.3684;1.5009;
1.2230;-0.0974;-4.7103;-2.1093;-0.4363;-2.8622;1.6231;
1.2240;-3.1807;-15.9193;-18.4195;-0.4363;-2.8622;1.6231;
1.2860;-3.1807;-15.9193;-18.4195;-0.4363;-2.8622;1.6231;
1.2890;-3.1807;-15.9193;-18.4195;-0.4363;-2.8622;1.6231;
1.2890;-3.1807;-15.9193;-18.4195;-0.5410;-2.2863;1.7453;
1.2900;-4.6505;-6.3219;-7.5244;-0.5410;-2.2863;1.7453;
1.3520;-4.6505;-6.3219;-7.5244;-0.5410;-2.2863;1.7453;
1.3550;-4.6505;-6.3219;-7.5244;-0.5410;-2.2863;1.7453;
1.3550;-4.6505;-6.3219;-7.5244;-0.6458;-1.5533;1.8151;
1.3560;-1.8151;-4.1779;-7.5058;-0.6458;-1.5533;1.8151;
1.4180;-1.8151;-4.1779;-7.5058;-0.6458;-1.5533;1.8151;
1.4210;-1.8151;-4.1779;-7.5058;-0.6458;-1.5533;1.8151;
1.4210;-1.8151;-4.1779;-7.5058;-0.7330;-0.5585;0.6283;
1.4220;-2.0534;-3.7344;-6.3970;-0.7330;-0.5585;0.6283;
1.4840;-2.0534;-3.7344;-6.3970;-0.7330;-0.5585;0.6283;
1.4870;-2.0534;-3.7344;-6.3970;-0.7330;-0.5585;0.6283;
1.4870;-2.0534;-3.7344;-6.3970;-0.8901;0.1571;-0.6108;
1.4880;-3.3170;-2.3044;-5.3890;-0.8901;0.1571;-0.6108;
1.5500;-3.3170;-2.3044;-5.3890;-0.8901;0.1571;-0.6108;
1.5530;-3.3170;-2.3044;-5.3890;-0.8901;0.1571;-0.6108;
1.5530;-3.3170;-2.3044;-5.3890;-0.9599;0.6283;-1.7627;
1.5540;-2.7810;-6.8746;-6.3200;-0.9599;0.6283;-1.7627;
1.6160;-2.7810;-6.8746;-6.3200;-0.9599;0.6283;-1.7627;
1.6190;-2.7810;-6.8746;-6.3200;-0.9599;0.6283;-1.7627;
1.6190;-2.7810;-6.8746;-6.3200;-0.9250;0.4189;-1.7976;
1.6200;-0.3941;-3.3821;-3.7702;-0.9250;0.4189;-1.7976;
1.6820;-0.3941;-3.3821;-3.7702;-0.9250;0.4189;-1.7976;
1.6850;-0.3941;-3.3821;-3.7702;-0.9250;0.4189;-1.7976;
1.6850;-0.3941;-3.3821;-3.7702;-0.8028;0.0698;-1.4486;
1.6860;-0.4571;-1.2037;-3.0823;-0.8028;0.0698;-1.4486;
1.7480;-0.4571;-1.2037;-3.0823;-0.8028;0.0698;-1.4486;
1.7510;-0.4571;-1.2037;-3.0823;-0.8028;0.0698;-1.4486;
1.7510;-0.4571;-1.2037;-3.0823;-0.6806;-0.2094;-1.1868;
1.7520;-3.4962;-6.9265;-1.7336;-0.6806;-0.2094;-1.1868;
1.8150;-3.4962;-6.9265;-1.7336;-0.6806;-0.2094;-1.1868;
1.8170;-3.4962;-6.9265;-1.7336;-0.6806;-0.2094;-1.1868;
1.8170;-3.4962;-6.9265;-1.7336;-0.3840;-0.4014;-0.7854;
1.8180;-4.2367;-1.3354;4.3514;-0.3840;-0.4014;-0.7854;
1.8800;-4.2367;-1.3354;4.3514;-0.3840;-0.4014;-0.7854;
1.8830;-4.2367;-1.3354;4.3514;-0.3840;-0.4014;-0.7854;
1.8830;-4.2367;-1.3354;4.3514;-0.0872;-0.4363;-0.4538;
1.8840;-0.1577;-3.6507;0.5639;-0.0872;-0.4363;-0.4538;
1.9470;-0.1577;-3.6507;0.5639;-0.0872;-0.4363;-0.4538;
1.9530;-0.1577;-3.6507;0.5639;-0.0872;-0.4363;-0.4538;
1.9540;-0.1577;-3.6507;0.5639;0.2269;-0.6108;-0.3316;
1.9550;1.0433;0.3300;2.6986;0.2269;-0.6108;-0.3316;
2.0130;1.0433;0.3300;2.6986;0.2269;-0.6108;-0.3316;
2.0150;1.0433;0.3300;2.6986;0.2269;-0.6108;-0.3316;
2.0160;1.0433;0.3300;2.6986;0.5934;-0.9250;-0.3665;
2.0170;-2.5639;-1.6812;1.5737;0.5934;-0.9250;-0.3665;
2.0790;-2.5639;-1.6812;1.5737;0.5934;-0.9250;-0.3665;
2.0810;-2.5639;-1.6812;1.5737;0.5934;-0.9250;-0.3665;
2.0830;-2.5639;-1.6812;1.5737;0.9948;-1.0995;-0.3490;
2.0840;1.8212;0.6149;1.9606;0.9948;-1.0995;-0.3490;
2.1450;1.8212;0.6149;1.9606;0.9948;-1.0995;-0.3490;
2.1470;1.8212;0.6149;1.9606;0.9948;-1.0995;-0.3490;
2.1480;1.8212;0.6149;1.9606;1.1344;-0.8028;-0.0698;
2.1490;-2.1169;-0.5767;2.8737;1.1344;-0.8028;-0.0698;
2.2110;-2.1169;-0.5767;2.8737;1.1344;-0.8028;-0.0698;
2.2130;-2.1169;-0.5767;2.8737;1.1344;-0.8028;-0.0698;
2.2160;-2.1169;-0.5767;2.8737;1.1170;-0.2967;0.2443;
2.2170;-0.0854;-1.8608;2.4328;1.1170;-0.2967;0.2443;
2.2760;-0.0854;-1.8608;2.4328;1.1170;-0.2967;0.2443;
2.2840;-0.0854;-1.8608;2.4328;1.1170;-0.2967;0.2443;
2.2850;-0.0854;-1.8608;2.4328;0.9948;0.0872;0.4014;
2.2860;3.6492;-0.9900;3.2549;0.9948;0.0872;0.4014;
2.3440;3.6492;-0.9900;3.2549;0.9948;0.0872;0.4014;
2.3440;3.6492;-0.9900;3.2549;0.9948;0.0872;0.4014;
2.3450;3.6492;-0.9900;3.2549;0.7505;0.1920;0.4014;
2.3460;5.8127;-2.0798;3.6927;0.7505;0.1920;0.4014;
2.4080;5.8127;-2.0798;3.6927;0.7505;0.1920;0.4014;
2.4100;5.8127;-2.0798;3.6927;0.7505;0.1920;0.4014;
2.4110;5.8127;-2.0798;3.6927;-0.1222;0.1571;2.8273;
2.4120;1.1162;-0.9783;2.2692;-0.1222;0.1571;2.8273;
2.4740;1.1162;-0.9783;2.2692;-0.1222;0.1571;2.8273;
2.4770;1.1162;-0.9783;2.2692;-0.1222;0.1571;2.8273;
2.4770;1.1162;-0.9783;2.2692;-0.1396;-0.1920;2.7401;
2.4780;-3.1355;-3.1452;2.1422;-0.1396;-0.1920;2.7401;
2.5400;-3.1355;-3.1452;2.1422;-0.1396;-0.1920;2.7401;
2.5450;-3.1355;-3.1452;2.1422;-0.1396;-0.1920;2.7401;
2.5460;-3.1355;-3.1452;2.1422;-0.1222;-0.6632;2.4434;
2.5460;-1.1983;-2.9359;3.2783;-0.1222;-0.6632;2.4434;
2.6060;-1.1983;-2.9359;3.2783;-0.1222;-0.6632;2.4434;
2.6090;-1.1983;-2.9359;3.2783;-0.1222;-0.6632;2.4434;
2.6090;-1.1983;-2.9359;3.2783;0.3141;-0.6632;-0.2443;
2.6100;3.9164;0.7494;0.4407;0.3141;-0.6632;-0.2443;
2.6720;3.9164;0.7494;0.4407;0.3141;-0.6632;-0.2443;
2.6770;3.9164;0.7494;0.4407;0.3141;-0.6632;-0.2443;
2.6780;3.9164;0.7494;0.4407;0.1396;0.0174;-0.1396;
2.6790;0.5968;5.7104;-0.3244;0.1396;0.0174;-0.1396;
2.7380;0.5968;5.7104;-0.3244;0.1396;0.0174;-0.1396;
2.7410;0.5968;5.7104;-0.3244;0.1396;0.0174;-0.1396;
2.7410;0.5968;5.7104;-0.3244;-0.3141;0.9773;0.1396;
2.7420;-4.1100;6.5825;-0.4957;-0.3141;0.9773;0.1396;
2.8060;-4.1100;6.5825;-0.4957;-0.3141;0.9773;0.1396;
2.8070;-4.1100;6.5825;-0.4957;-0.3141;0.9773;0.1396;
2.8070;-4.1100;6.5825;-0.4957;-0.7505;1.7976;0.2269;
2.8080;0.0556;-1.7827;-5.7007;-0.7505;1.7976;0.2269;
2.8700;0.0556;-1.7827;-5.7007;-0.7505;1.7976;0.2269;
2.8730;0.0556;-1.7827;-5.7007;-0.7505;1.7976;0.2269;
2.8730;0.0556;-1.7827;-5.7007;-0.8203;1.8151;0.0698;
2.8740;4.8517;-0.4977;-4.7348;-0.8203;1.8151;0.0698;
2.9370;4.8517;-0.4977;-4.7348;-0.8203;1.8151;0.0698;
2.9390;4.8517;-0.4977;-4.7348;-0.8203;1.8151;0.0698;
2.9400;4.8517;-0.4977;-4.7348;0.1222;1.3089;-1.8151;
2.9410;4.9789;1.8788;-3.9404;0.1222;1.3089;-1.8151;
3.0030;4.9789;1.8788;-3.9404;0.1222;1.3089;-1.8151;
3.0050;4.9789;1.8788;-3.9404;0.1222;1.3089;-1.8151;
3.0050;4.9789;1.8788;-3.9404;0.5585;0.8552;-2.7226;
3.0060;-3.1999;-0.2557;0.8636;0.5585;0.8552;-2.7226;
3.0710;-3.1999;-0.2557;0.8636;0.5585;0.8552;-2.7226;
3.0720;-3.1999;-0.2557;0.8636;0.5585;0.8552;-2.7226;
3.0730;-3.1999;-0.2557;0.8636;0.4712;0.7854;-2.4434;
3.0740;-6.2601;2.3342;2.3320;0.4712;0.7854;-2.4434;
3.1350;-6.2601;2.3342;2.3320;0.4712;0.7854;-2.4434;
3.1370;-6.2601;2.3342;2.3320;0.4712;0.7854;-2.4434;
3.1380;-6.2601;2.3342;2.3320;-0.4538;0.7854;-0.3840;
3.1390;-3.3322;-1.7986;2.8453;-0.4538;0.7854;-0.3840;
3.2180;-3.3322;-1.7986;2.8453;-0.4538;0.7854;-0.3840;
3.2190;-3.3322;-1.7986;2.8453;-0.7330;0.7679;0.5934;
3.2200;3.0372;-1.9115;-0.8998;-0.7330;0.7679;0.5934;
3.2210;3.0372;-1.9115;-0.8998;-0.7330;0.7679;0.5934;
3.2670;3.0372;-1.9115;-0.8998;-0.7330;0.7679;0.5934;
3.2690;3.0372;-1.9115;-0.8998;-0.7330;0.7679;0.5934;
3.2710;3.0372;-1.9115;-0.8998;-0.2618;0.2443;0.2792;
3.2720;3.6211;2.8501;2.1341;-0.2618;0.2443;0.2792;
3.3360;3.6211;2.8501;2.1341;-0.2618;0.2443;0.2792;
3.3370;3.6211;2.8501;2.1341;-0.2618;0.2443;0.2792;
3.3380;3.6211;2.8501;2.1341;0.1920;-0.2443;-0.3141;
3.3390;-1.4850;-0.2671;-0.6533;0.1920;-0.2443;-0.3141;
3.3990;-1.4850;-0.2671;-0.6533;0.1920;-0.2443;-0.3141;
3.4010;-1.4850;-0.2671;-0.6533;0.1920;-0.2443;-0.3141;
3.4020;-1.4850;-0.2671;-0.6533;0.4712;-0.5236;-0.5236;
3.4030;-0.9563;-0.3549;1.5553;0.4712;-0.5236;-0.5236;
3.4650;-0.9563;-0.3549;1.5553;0.4712;-0.5236;-0.5236;
3.4670;-0.9563;-0.3549;1.5553;0.4712;-0.5236;-0.5236;
3.4680;-0.9563;-0.3549;1.5553;0.6458;-0.5934;-0.4014;
3.4700;2.7233;0.6155;1.6225;0.6458;-0.5934;-0.4014;
3.5310;2.7233;0.6155;1.6225;0.6458;-0.5934;-0.4014;
3.5330;2.7233;0.6155;1.6225;0.6458;-0.5934;-0.4014;
3.5350;2.7233;0.6155;1.6225;0.6458;-0.4887;-0.0174;
3.5360;2.8130;0.4814;2.2397;0.6458;-0.4887;-0.0174;
3.5970;2.8130;0.4814;2.2397;0.6458;-0.4887;-0.0174;
3.5990;2.8130;0.4814;2.2397;0.6458;-0.4887;-0.0174;
3.6010;2.8130;0.4814;2.2397;0.6283;-0.3316;0.1920;
3.6020;1.0994;-1.8840;1.7474;0.6283;-0.3316;0.1920;
3.6630;1.0994;-1.8840;1.7474;0.6283;-0.3316;0.1920;
3.6650;1.0994;-1.8840;1.7474;0.6283;-0.3316;0.1920;
3.6670;1.0994;-1.8840;1.7474;-0.4189;-0.3490;3.1590;
3.6680;-2.9298;-4.5690;-0.0200;-0.4189;-0.3490;3.1590;
3.7290;-2.9298;-4.5690;-0.0200;-0.4189;-0.3490;3.1590;
3.7310;-2.9298;-4.5690;-0.0200;-0.4189;-0.3490;3.1590;
3.7320;-2.9298;-4.5690;-0.0200;-0.3316;-0.6283;3.1066;
3.7330;-3.0228;-5.2029;0.5944;-0.3316;-0.6283;3.1066;
3.7950;-3.0228;-5.2029;0.5944;-0.3316;-0.6283;3.1066;
3.7970;-3.0228;-5.2029;0.5944;-0.3316;-0.6283;3.1066;
3.7980;-3.0228;-5.2029;0.5944;-0.2443;-1.0123;2.9844;
3.7990;5.2294;1.8419;0.7108;-0.2443;-1.0123;2.9844;
3.8610;5.2294;1.8419;0.7108;-0.2443;-1.0123;2.9844;
3.8630;5.2294;1.8419;0.7108;-0.2443;-1.0123;2.9844;
3.8650;5.2294;1.8419;0.7108;0.3840;-0.9599;0.1222;
3.8660;-1.6675;4.6790;-1.5341;0.3840;-0.9599;0.1222;
3.9270;-1.6675;4.6790;-1.5341;0.3840;-0.9599;0.1222;
3.9300;-1.6675;4.6790;-1.5341;0.3840;-0.9599;0.1222;
3.9310;-1.6675;4.6790;-1.5341;0.0174;-0.0174;0.2094;
3.9330;-5.9810;5.0845;-0.3435;0.0174;-0.0174;0.2094;
3.9930;-5.9810;5.0845;-0.3435;0.0174;-0.0174;0.2094;
3.9950;-5.9810;5.0845;-0.3435;0.0174;-0.0174;0.2094;
3.9970;-5.9810;5.0845;-0.3435;-0.5759;0.9424;0.2792;
3.9980;-2.3569;1.8348;-1.1435;-0.5759;0.9424;0.2792;
4.0590;-2.3569;1.8348;-1.1435;-0.5759;0.9424;0.2792;
4.0610;-2.3569;1.8348;-1.1435;-0.5759;0.9424;0.2792;
4.0630;-2.3569;1.8348;-1.1435;-0.4189;1.3264;-0.8901;
4.0640;12.0146;-5.2698;-5.5752;-0.4189;1.3264;-0.8901;
4.1250;12.0146;-5.2698;-5.5752;-0.4189;1.3264;-0.8901;
4.1270;12.0146;-5.2698;-5.5752;-0.4189;1.3264;-0.8901;
4.1290;12.0146;-5.2698;-5.5752;0.5585;1.1693;-3.1590;
4.1300;2.8880;0.8223;-0.4816;0.5585;1.1693;-3.1590;
4.1910;2.8880;0.8223;-0.4816;0.5585;1.1693;-3.1590;
4.1940;2.8880;0.8223;-0.4816;0.5585;1.1693;-3.1590;
4.1950;2.8880;0.8223;-0.4816;0.6632;0.7679;-3.2113;
4.1970;-5.3161;-0.9447;0.1861;0.6632;0.7679;-3.2113;
4.2570;-5.3161;-0.9447;0.1861;0.6632;0.7679;-3.2113;
4.2590;-5.3161;-0.9447;0.1861;0.6632;0.7679;-3.2113;
4.2600;-5.3161;-0.9447;0.1861;0.2443;0.6108;-1.8325;
4.2620;-2.5158;-0.8822;3.4487;0.2443;0.6108;-1.8325;
4.3230;-2.5158;-0.8822;3.4487;0.2443;0.6108;-1.8325;
4.3290;-2.5158;-0.8822;3.4487;0.2443;0.6108;-1.8325;
4.3300;-2.5158;-0.8822;3.4487;-0.6283;0.6632;0.4538;
4.3310;3.1701;-1.6288;-6.1827;-0.6283;0.6632;0.4538;
4.3890;3.1701;-1.6288;-6.1827;-0.6283;0.6632;0.4538;
4.3910;3.1701;-1.6288;-6.1827;-0.6283;0.6632;0.4538;
4.3920;3.1701;-1.6288;-6.1827;-0.4014;0.4538;0.3840;
4.3930;0.4408;2.2749;0.5606;-0.4014;0.4538;0.3840;
4.4550;0.4408;2.2749;0.5606;-0.4014;0.4538;0.3840;
4.4570;0.4408;2.2749;0.5606;-0.4014;0.4538;0.3840;
4.4580;0.4408;2.2749;0.5606;0.0000;0.0174;-0.0524;
4.4590;0.6294;0.2428;0.1517;0.0000;0.0174;-0.0524;
4.5210;0.6294;0.2428;0.1517;0.0000;0.0174;-0.0524;
4.5230;0.6294;0.2428;0.1517;0.0000;0.0174;-0.0524;
4.5240;0.6294;0.2428;0.1517;0.3490;-0.3141;-0.4538;
4.5250;-0.6335;1.3993;1.7872;0.3490;-0.3141;-0.4538;
4.5870;-0.6335;1.3993;1.7872;0.3490;-0.3141;-0.4538;
4.5890;-0.6335;1.3993;1.7872;0.3490;-0.3141;-0.4538;
4.5900;-0.6335;1.3993;1.7872;0.5934;-0.4014;-0.4363;
4.5910;0.5098;-1.0527;-0.8845;0.5934;-0.4014;-0.4363;
4.6530;0.5098;-1.0527;-0.8845;0.5934;-0.4014;-0.4363;
4.6550;0.5098;-1.0527;-0.8845;0.5934;-0.4014;-0.4363;
4.6560;0.5098;-1.0527;-0.8845;0.6283;-0.2094;-0.1571;
4.6570;2.9656;0.6402;2.1960;0.6283;-0.2094;-0.1571;
4.7230;2.9656;0.6402;2.1960;0.6283;-0.2094;-0.1571;
4.7240;2.9656;0.6402;2.1960;0.6283;0.1396;0.0349;
4.7250;3.9949;-1.9069;2.0913;0.6283;0.1396;0.0349;
4.7260;3.9949;-1.9069;2.0913;0.6283;0.1396;0.0349;
4.7860;3.9949;-1.9069;2.0913;0.6283;0.1396;0.0349;
4.7870;3.9949;-1.9069;2.0913;0.6283;0.1396;0.0349;
4.7880;3.9949;-1.9069;2.0913;-0.1571;0.2967;2.3038;
4.7890;-1.0827;-1.9444;-0.8795;-0.1571;0.2967;2.3038;
4.8620;-1.0827;-1.9444;-0.8795;-0.1571;0.2967;2.3038;
4.8620;-1.0827;-1.9444;-0.8795;-0.0174;-0.8552;3.3858;
4.8630;-3.7818;-4.7389;0.6558;-0.0174;-0.8552;3.3858;
4.8640;-3.7818;-4.7389;0.6558;-0.0174;-0.8552;3.3858;
4.9160;-3.7818;-4.7389;0.6558;-0.0174;-0.8552;3.3858;
4.9190;-3.7818;-4.7389;0.6558;-0.0174;-0.8552;3.3858;
4.9200;-3.7818;-4.7389;0.6558;0.8726;-3.3509;3.2462;
4.9210;4.2429;-0.5490;-0.2801;0.8726;-3.3509;3.2462;
4.9970;4.2429;-0.5490;-0.2801;0.8726;-3.3509;3.2462;
4.9990;4.2429;-0.5490;-0.2801;2.0245;-4.2934;1.1170;
5.0000;0.2471;3.1937;0.9728;2.0245;-4.2934;1.1170;
5.0010;0.2471;3.1937;0.9728;2.0245;-4.2934;1.1170;
5.0490;0.2471;3.1937;0.9728;2.0245;-4.2934;1.1170;
5.0510;0.2471;3.1937;0.9728;2.0245;-4.2934;1.1170;
5.0520;0.2471;3.1937;0.9728;1.5882;-3.2986;0.2443;
5.0530;-5.5089;4.7904;-0.9851;1.5882;-3.2986;0.2443;
5.1280;-5.5089;4.7904;-0.9851;1.5882;-3.2986;0.2443;
5.1290;-5.5089;4.7904;-0.9851;1.5882;-3.2986;0.2443;
5.1310;-5.5089;4.7904;-0.9851;1.0646;-2.3910;0.3490;
5.1320;-6.3488;4.7498;-0.6403;1.0646;-2.3910;0.3490;
5.1810;-6.3488;4.7498;-0.6403;1.0646;-2.3910;0.3490;
5.1830;-6.3488;4.7498;-0.6403;1.0646;-2.3910;0.3490;
5.1840;-6.3488;4.7498;-0.6403;0.1745;-0.8203;-1.4835;
5.1850;11.8763;-7.3936;-6.1563;0.1745;-0.8203;-1.4835;
5.2660;11.8763;-7.3936;-6.1563;0.1745;-0.8203;-1.4835;
5.2740;11.8763;-7.3936;-6.1563;-0.0872;-0.4363;-2.8448;
5.2750;4.5747;2.9659;-5.4028;-0.0872;-0.4363;-2.8448;
5.2760;4.5747;2.9659;-5.4028;-0.0872;-0.4363;-2.8448;
5.3130;4.5747;2.9659;-5.4028;-0.0872;-0.4363;-2.8448;
5.3150;4.5747;2.9659;-5.4028;-0.0872;-0.4363;-2.8448;
5.3160;4.5747;2.9659;-5.4028;-0.5410;-0.0524;-3.0542;
5.3170;1.8620;-8.0849;-0.0923;-0.5410;-0.0524;-3.0542;
5.3790;1.8620;-8.0849;-0.0923;-0.5410;-0.0524;-3.0542;
5.3810;1.8620;-8.0849;-0.0923;-0.5410;-0.0524;-3.0542;
5.3820;1.8620;-8.0849;-0.0923;-0.8901;0.1047;-2.1292;
5.3830;-6.0469;4.5599;2.6669;-0.8901;0.1047;-2.1292;
5.4450;-6.0469;4.5599;2.6669;-0.8901;0.1047;-2.1292;
5.4470;-6.0469;4.5599;2.6669;-0.8901;0.1047;-2.1292;
5.4480;-6.0469;4.5599;2.6669;-0.9773;0.1571;0.2443;
5.4490;-2.7695;-0.6510;2.9445;-0.9773;0.1571;0.2443;
5.5340;-2.7695;-0.6510;2.9445;-0.9773;0.1571;0.2443;
5.5360;-2.7695;-0.6510;2.9445;-0.9773;0.1571;0.2443;
5.5370;-2.7695;-0.6510;2.9445;-0.9250;0.0698;0.3141;
5.5380;2.7422;-0.6640;-1.5233;-0.9250;0.0698;0.3141;
5.5770;2.7422;-0.6640;-1.5233;-0.9250;0.0698;0.3141;
5.5790;2.7422;-0.6640;-1.5233;-0.9250;0.0698;0.3141;
5.5800;2.7422;-0.6640;-1.5233;-0.4712;-0.2792;0.1222;
5.5810;0.9217;2.4416;2.5126;-0.4712;-0.2792;0.1222;
5.6430;0.9217;2.4416;2.5126;-0.4712;-0.2792;0.1222;
5.6450;0.9217;2.4416;2.5126;-0.4712;-0.2792;0.1222;
5.6470;0.9217;2.4416;2.5126;-0.1571;-0.9075;-0.2967;
5.6480;0.4222;1.1262;-1.6822;-0.1571;-0.9075;-0.2967;
5.7090;0.4222;1.1262;-1.6822;-0.1571;-0.9075;-0.2967;
5.7110;0.4222;1.1262;-1.6822;-0.1571;-0.9075;-0.2967;
5.7120;0.4222;1.1262;-1.6822;0.1222;-1.4137;-0.5061;
5.7140;0.0023;-1.3864;-0.1676;0.1222;-1.4137;-0.5061;
5.7750;0.0023;-1.3864;-0.1676;0.1222;-1.4137;-0.5061;
5.7780;0.0023;-1.3864;-0.1676;0.1222;-1.4137;-0.5061;
5.7790;0.0023;-1.3864;-0.1676;0.1571;-1.4660;-0.4538;
5.7810;3.3677;0.4595;1.5709;0.1571;-1.4660;-0.4538;
5.8420;3.3677;0.4595;1.5709;0.1571;-1.4660;-0.4538;
5.8430;3.3677;0.4595;1.5709;0.1571;-1.4660;-0.4538;
5.8460;3.3677;0.4595;1.5709;0.1745;-1.2217;-0.1047;
5.8470;4.4625;-1.6618;1.5794;0.1745;-1.2217;-0.1047;
5.9070;4.4625;-1.6618;1.5794;0.1745;-1.2217;-0.1047;
5.9090;4.4625;-1.6618;1.5794;0.1745;-1.2217;-0.1047;
5.9110;4.4625;-1.6618;1.5794;0.0000;-0.7854;2.3910;
5.9120;-1.7624;-1.1241;-1.5586;0.0000;-0.7854;2.3910;
5.9740;-1.7624;-1.1241;-1.5586;0.0000;-0.7854;2.3910;
5.9760;-1.7624;-1.1241;-1.5586;0.0000;-0.7854;2.3910;
5.9770;-1.7624;-1.1241;-1.5586;0.0872;-0.5934;3.2462;
5.9790;-2.9909;-4.8697;0.2883;0.0872;-0.5934;3.2462;
6.0390;-2.9909;-4.8697;0.2883;0.0872;-0.5934;3.2462;
6.0420;-2.9909;-4.8697;0.2883;0.0872;-0.5934;3.2462;
6.0430;-2.9909;-4.8697;0.2883;0.2443;-0.6283;3.0717;
6.0450;2.1801;-1.7770;0.0394;0.2443;-0.6283;3.0717;
6.1050;2.1801;-1.7770;0.0394;0.2443;-0.6283;3.0717;
6.1070;2.1801;-1.7770;0.0394;0.2443;-0.6283;3.0717;
6.1090;2.1801;-1.7770;0.0394;0.3665;-0.6632;1.9023;
6.1100;1.2529;3.9572;0.5462;0.3665;-0.6632;1.9023;
6.1840;1.2529;3.9572;0.5462;0.3665;-0.6632;1.9023;
6.2030;1.2529;3.9572;0.5462;0.3665;-0.6632;1.9023;
6.2070;1.2529;3.9572;0.5462;0.3316;-0.5410;0.0000;
6.2100;-3.7169;5.1213;-1.5000;0.3316;-0.5410;0.0000;
6.2370;-3.7169;5.1213;-1.5000;0.3316;-0.5410;0.0000;
6.2400;-3.7169;5.1213;-1.5000;0.3316;-0.5410;0.0000;
6.2410;-3.7169;5.1213;-1.5000;-0.0349;-0.0174;0.1571;
6.2760;-5.4075;4.1453;-0.6039;-0.0349;-0.0174;0.1571;
6.3030;-5.4075;4.1453;-0.6039;-0.0349;-0.0174;0.1571;
6.3050;-5.4075;4.1453;-0.6039;-0.0349;-0.0174;0.1571;
6.3060;-5.4075;4.1453;-0.6039;-0.4189;0.4887;-0.9599;
6.3070;11.4474;-6.4765;-7.5642;-0.4189;0.4887;-0.9599;
6.4710;11.4474;-6.4765;-7.5642;-0.4189;0.4887;-0.9599;
6.4720;11.4474;-6.4765;-7.5642;-0.5061;0.5759;-3.7174;
6.4730;11.4474;-6.4765;-7.5642;-0.5061;0.5759;-3.7174;
6.4740;11.4474;-6.4765;-7.5642;-0.5061;0.5759;-3.7174;
6.4750;-4.9368;1.5270;3.1183;-0.5061;0.5759;-3.7174;
6.4760;-4.9368;1.5270;3.1183;-0.5061;0.5759;-3.7174;
6.4770;-4.9368;1.5270;3.1183;-0.5061;0.5759;-3.7174;
6.4770;-4.9368;1.5270;3.1183;-0.5061;0.5759;-3.7174;
6.4780;-4.9368;1.5270;3.1183;-0.5061;0.5759;-3.7174;
6.5000;-4.9368;1.5270;3.1183;-0.5061;0.5759;-3.7174;
6.5030;-4.9368;1.5270;3.1183;-0.5061;0.5759;-3.7174;
6.5040;-4.9368;1.5270;3.1183;-0.5061;0.6283;-3.6476;
6.5040;-5.9899;3.4869;3.9897;-0.5061;0.6283;-3.6476;
6.5660;-5.9899;3.4869;3.9897;-0.5061;0.6283;-3.6476;
6.5690;-5.9899;3.4869;3.9897;-0.5061;0.6283;-3.6476;
6.5700;-5.9899;3.4869;3.9897;-0.5236;0.9948;0.2792;
6.5700;-1.4759;-0.6851;3.8770;-0.5236;0.9948;0.2792;
6.6320;-1.4759;-0.6851;3.8770;-0.5236;0.9948;0.2792;
6.6350;-1.4759;-0.6851;3.8770;-0.5236;0.9948;0.2792;
6.6360;-1.4759;-0.6851;3.8770;-0.4014;0.7505;0.2967;
6.6370;-0.3999;3.1371;1.0856;-0.4014;0.7505;0.2967;
6.6980;-0.3999;3.1371;1.0856;-0.4014;0.7505;0.2967;
6.7010;-0.3999;3.1371;1.0856;-0.4014;0.7505;0.2967;
6.7020;-0.3999;3.1371;1.0856;-0.1745;-0.1571;-0.0698;
6.7020;-0.0144;0.8101;3.5089;-0.1745;-0.1571;-0.0698;
6.7640;-0.0144;0.8101;3.5089;-0.1745;-0.1571;-0.0698;
6.7690;-0.0144;0.8101;3.5089;-0.1745;-0.1571;-0.0698;
6.7700;-0.0144;0.8101;3.5089;0.0000;-1.0297;-0.5061;
6.7700;0.0542;0.8211;-1.8569;0.0000;-1.0297;-0.5061;
6.8330;0.0542;0.8211;-1.8569;0.0000;-1.0297;-0.5061;
6.8330;0.0542;0.8211;-1.8569;0.1047;-1.3788;-0.5934;
6.8340;-2.2661;-1.2495;2.3469;0.1047;-1.3788;-0.5934;
6.8350;-2.2661;-1.2495;2.3469;0.1047;-1.3788;-0.5934;
6.9030;-2.2661;-1.2495;2.3469;0.1047;-1.3788;-0.5934;
6.9040;-2.2661;-1.2495;2.3469;0.1745;-1.2217;-0.3141;
6.9040;4.1475;1.4645;2.7134;0.1745;-1.2217;-0.3141;
6.9050;4.1475;1.4645;2.7134;0.1745;-1.2217;-0.3141;
6.9630;4.1475;1.4645;2.7134;0.1745;-1.2217;-0.3141;
6.9650;4.1475;1.4645;2.7134;0.1745;-1.2217;-0.3141;
6.9660;4.1475;1.4645;2.7134;0.1745;-0.9250;-0.0524;
6.9670;4.7885;-0.9841;3.0484;0.1745;-0.9250;-0.0524;
7.0350;4.7885;-0.9841;3.0484;0.1745;-0.9250;-0.0524;
7.0360;4.7885;-0.9841;3.0484;0.5759;-0.5934;2.2863;
7.0370;-0.9055;-4.4306;0.0951;0.5759;-0.5934;2.2863;
7.0380;-0.9055;-4.4306;0.0951;0.5759;-0.5934;2.2863;
7.0940;-0.9055;-4.4306;0.0951;0.5759;-0.5934;2.2863;
7.0970;-0.9055;-4.4306;0.0951;0.5759;-0.5934;2.2863;
7.0970;-0.9055;-4.4306;0.0951;0.9773;-0.4712;3.3160;
7.0980;-5.0435;-4.2845;-0.1155;0.9773;-0.4712;3.3160;
7.1600;-5.0435;-4.2845;-0.1155;0.9773;-0.4712;3.3160;
7.1620;-5.0435;-4.2845;-0.1155;0.9773;-0.4712;3.3160;
7.1630;-5.0435;-4.2845;-0.1155;1.0995;-0.4712;3.1590;
7.1640;2.6254;-0.2281;-0.7257;1.0995;-0.4712;3.1590;
7.2270;2.6254;-0.2281;-0.7257;1.0995;-0.4712;3.1590;
7.2290;2.6254;-0.2281;-0.7257;1.0995;-0.4712;3.1590;
7.2300;2.6254;-0.2281;-0.7257;0.8028;-0.5236;0.9773;
7.2310;-0.1129;4.9251;0.0521;0.8028;-0.5236;0.9773;
7.2930;-0.1129;4.9251;0.0521;0.8028;-0.5236;0.9773;
7.2950;-0.1129;4.9251;0.0521;0.8028;-0.5236;0.9773;
7.2960;-0.1129;4.9251;0.0521;0.4189;-0.4712;0.1047;
7.2970;-3.8909;5.0945;-1.9138;0.4189;-0.4712;0.1047;
7.3590;-3.8909;5.0945;-1.9138;0.4189;-0.4712;0.1047;
7.3680;-3.8909;5.0945;-1.9138;0.4189;-0.4712;0.1047;
7.3710;-3.8909;5.0945;-1.9138;0.1571;-0.2618;0.4363;
7.3730;-4.8931;2.9828;-0.6213;0.1571;-0.2618;0.4363;
7.4300;-4.8931;2.9828;-0.6213;0.1571;-0.2618;0.4363;
7.4310;-4.8931;2.9828;-0.6213;0.1571;-0.2618;0.4363;
7.4320;-4.8931;2.9828;-0.6213;-0.0698;-0.1047;0.4887;
7.4350;10.7046;-5.6252;-5.7531;-0.0698;-0.1047;0.4887;
7.4910;10.7046;-5.6252;-5.7531;-0.0698;-0.1047;0.4887;
7.4930;10.7046;-5.6252;-5.7531;-0.0698;-0.1047;0.4887;
7.4940;10.7046;-5.6252;-5.7531;-0.2967;0.0000;-0.5585;
7.4950;1.4636;6.5359;-3.8526;-0.2967;0.0000;-0.5585;
7.5570;1.4636;6.5359;-3.8526;-0.2967;0.0000;-0.5585;
7.5590;1.4636;6.5359;-3.8526;-0.2967;0.0000;-0.5585;
7.5600;1.4636;6.5359;-3.8526;-0.3840;0.4014;-2.8448;
7.5620;0.6185;-9.1648;-0.3989;-0.3840;0.4014;-2.8448;
7.6230;0.6185;-9.1648;-0.3989;-0.3840;0.4014;-2.8448;
7.6260;0.6185;-9.1648;-0.3989;-0.3840;0.4014;-2.8448;
7.6270;0.6185;-9.1648;-0.3989;-0.3141;1.3439;-2.7924;
7.6280;-6.8508;4.2845;2.6817;-0.3141;1.3439;-2.7924;
7.6890;-6.8508;4.2845;2.6817;-0.3141;1.3439;-2.7924;
7.6910;-6.8508;4.2845;2.6817;-0.3141;1.3439;-2.7924;
7.6930;-6.8508;4.2845;2.6817;-0.2967;1.9198;-2.4957;
7.6940;-1.8814;-1.4898;2.0844;-0.2967;1.9198;-2.4957;
7.7550;-1.8814;-1.4898;2.0844;-0.2967;1.9198;-2.4957;
7.7570;-1.8814;-1.4898;2.0844;-0.2967;1.9198;-2.4957;
7.7590;-1.8814;-1.4898;2.0844;-0.1222;2.0594;0.5236;
7.7600;2.7307;0.6491;-1.5018;-0.1222;2.0594;0.5236;
7.8210;2.7307;0.6491;-1.5018;-0.1222;2.0594;0.5236;
7.8230;2.7307;0.6491;-1.5018;-0.1222;2.0594;0.5236;
7.8250;2.7307;0.6491;-1.5018;-0.0872;0.9948;0.4014;
7.8260;-0.2569;1.4688;2.7679;-0.0872;0.9948;0.4014;
7.8870;-0.2569;1.4688;2.7679;-0.0872;0.9948;0.4014;
7.8890;-0.2569;1.4688;2.7679;-0.0872;0.9948;0.4014;
7.8910;-0.2569;1.4688;2.7679;0.0698;0.0000;-0.1047;
7.8920;0.5631;0.3749;-2.2799;0.0698;0.0000;-0.1047;
7.9530;0.5631;0.3749;-2.2799;0.0698;0.0000;-0.1047;
7.9550;0.5631;0.3749;-2.2799;0.0698;0.0000;-0.1047;
7.9560;0.5631;0.3749;-2.2799;0.3141;-0.7156;-0.4363;
7.9570;0.9282;-1.8254;-0.7092;0.3141;-0.7156;-0.4363;
8.0190;0.9282;-1.8254;-0.7092;0.3141;-0.7156;-0.4363;
8.0210;0.9282;-1.8254;-0.7092;0.3141;-0.7156;-0.4363;
8.0220;0.9282;-1.8254;-0.7092;0.3665;-0.8377;-0.3141;
8.0230;4.0511;1.4281;2.4257;0.3665;-0.8377;-0.3141;
8.0850;4.0511;1.4281;2.4257;0.3665;-0.8377;-0.3141;
8.0870;4.0511;1.4281;2.4257;0.3665;-0.8377;-0.3141;
8.0880;4.0511;1.4281;2.4257;0.3490;-0.7854;-0.0698;
8.0890;3.9092;-1.8465;2.2953;0.3490;-0.7854;-0.0698;
8.1500;3.9092;-1.8465;2.2953;0.3490;-0.7854;-0.0698;
8.1530;3.9092;-1.8465;2.2953;0.3490;-0.7854;-0.0698;
8.1540;3.9092;-1.8465;2.2953;0.2967;-0.5410;1.2740;
8.1550;-1.3167;-4.5054;-0.9253;0.2967;-0.5410;1.2740;
8.2160;-1.3167;-4.5054;-0.9253;0.2967;-0.5410;1.2740;
8.2190;-1.3167;-4.5054;-0.9253;0.2967;-0.5410;1.2740;
8.2200;-1.3167;-4.5054;-0.9253;0.2967;-0.2443;3.5778;
8.2200;-3.7748;-2.9157;-0.4858;0.2967;-0.2443;3.5778;
8.2830;-3.7748;-2.9157;-0.4858;0.2967;-0.2443;3.5778;
8.2850;-3.7748;-2.9157;-0.4858;0.2967;-0.2443;3.5778;
8.2860;-3.7748;-2.9157;-0.4858;0.2967;-0.0872;3.4731;
8.2880;3.9166;-2.7914;0.1115;0.2967;-0.0872;3.4731;
8.3570;3.9166;-2.7914;0.1115;0.2967;-0.0872;3.4731;
8.3580;3.9166;-2.7914;0.1115;0.2967;-0.0872;3.4731;
8.3590;3.9166;-2.7914;0.1115;0.2618;-0.0349;3.4207;
8.3600;0.2868;3.6752;-0.7433;0.2618;-0.0349;3.4207;
8.4150;0.2868;3.6752;-0.7433;0.2618;-0.0349;3.4207;
8.4170;0.2868;3.6752;-0.7433;0.2618;-0.0349;3.4207;
8.4180;0.2868;3.6752;-0.7433;0.1396;0.0000;0.1571;
8.4190;-3.4767;5.3633;-1.5232;0.1396;0.0000;0.1571;
8.4840;-3.4767;5.3633;-1.5232;0.1396;0.0000;0.1571;
8.4860;-3.4767;5.3633;-1.5232;0.1396;0.0000;0.1571;
8.4870;-3.4767;5.3633;-1.5232;-0.0872;0.1920;0.2269;
8.4890;-4.5589;4.0234;-0.5622;-0.0872;0.1920;0.2269;
8.5470;-4.5589;4.0234;-0.5622;-0.0872;0.1920;0.2269;
8.5490;-4.5589;4.0234;-0.5622;-0.0872;0.1920;0.2269;
8.5500;-4.5589;4.0234;-0.5622;-0.4363;0.5061;-0.8552;
8.5510;11.2838;-6.3690;-6.6377;-0.4363;0.5061;-0.8552;
8.6130;11.2838;-6.3690;-6.6377;-0.4363;0.5061;-0.8552;
8.6150;11.2838;-6.3690;-6.6377;-0.4363;0.5061;-0.8552;
8.6160;11.2838;-6.3690;-6.6377;-0.5585;0.4887;-3.3160;
8.6170;1.2020;6.7244;-3.5260;-0.5585;0.4887;-3.3160;
8.6790;1.2020;6.7244;-3.5260;-0.5585;0.4887;-3.3160;
8.6810;1.2020;6.7244;-3.5260;-0.5585;0.4887;-3.3160;
8.6820;1.2020;6.7244;-3.5260;-0.6458;0.4887;-3.3858;
8.6830;-0.5290;-7.9538;0.5749;-0.6458;0.4887;-3.3858;
8.7450;-0.5290;-7.9538;0.5749;-0.6458;0.4887;-3.3858;
8.7470;-0.5290;-7.9538;0.5749;-0.6458;0.4887;-3.3858;
8.7480;-0.5290;-7.9538;0.5749;-0.6981;0.6458;-1.9896;
8.7490;-4.9747;5.0094;3.2720;-0.6981;0.6458;-1.9896;
8.8110;-4.9747;5.0094;3.2720;-0.6981;0.6458;-1.9896;
8.8130;-4.9747;5.0094;3.2720;-0.6981;0.6458;-1.9896;
8.8140;-4.9747;5.0094;3.2720;-0.7505;0.7330;0.5585;
8.8150;-1.3151;-1.6686;2.9540;-0.7505;0.7330;0.5585;
8.8820;-1.3151;-1.6686;2.9540;-0.7505;0.7330;0.5585;
8.8830;-1.3151;-1.6686;2.9540;-0.7505;0.7330;0.5585;
8.8840;-1.3151;-1.6686;2.9540;-0.6458;0.4887;0.5410;
8.8850;1.4913;2.1036;-0.7371;-0.6458;0.4887;0.5410;
8.9650;1.4913;2.1036;-0.7371;-0.6458;0.4887;0.5410;
8.9670;1.4913;2.1036;-0.7371;-0.4014;-0.2094;0.0698;
8.9700;-0.5545;1.5113;3.0350;-0.4014;-0.2094;0.0698;
8.9710;-0.5545;1.5113;3.0350;-0.4014;-0.2094;0.0698;
9.0140;-0.5545;1.5113;3.0350;-0.4014;-0.2094;0.0698;
9.0160;-0.5545;1.5113;3.0350;-0.1047;-0.8552;-0.4363;
9.0170;1.2889;0.5726;-2.3799;-0.1047;-0.8552;-0.4363;
9.0190;1.2889;0.5726;-2.3799;-0.1047;-0.8552;-0.4363;
9.0940;1.2889;0.5726;-2.3799;-0.1047;-0.8552;-0.4363;
9.0960;1.2889;0.5726;-2.3799;0.1222;-1.2217;-0.6283;
9.0960;-1.5098;-0.0794;1.3010;0.1222;-1.2217;-0.6283;
9.0970;-1.5098;-0.0794;1.3010;0.1222;-1.2217;-0.6283;
9.1410;-1.5098;-0.0794;1.3010;0.1222;-1.2217;-0.6283;
9.1430;-1.5098;-0.0794;1.3010;0.1222;-1.2217;-0.6283;
9.1440;-1.5098;-0.0794;1.3010;0.2443;-1.1868;-0.5061;
9.1450;2.0955;0.5464;2.0646;0.2443;-1.1868;-0.5061;
9.2190;2.0955;0.5464;2.0646;0.2443;-1.1868;-0.5061;
9.2200;2.0955;0.5464;2.0646;0.2792;-0.9075;-0.1920;
9.2210;3.5685;-1.0353;1.9411;0.2792;-0.9075;-0.1920;
9.2220;3.5685;-1.0353;1.9411;0.2792;-0.9075;-0.1920;
9.2730;3.5685;-1.0353;1.9411;0.2792;-0.9075;-0.1920;
9.2750;3.5685;-1.0353;1.9411;0.2792;-0.9075;-0.1920;
9.2760;3.5685;-1.0353;1.9411;0.2792;-0.5934;0.0174;
9.2770;-0.1263;-2.8223;0.1877;0.2792;-0.5934;0.0174;
9.3500;-0.1263;-2.8223;0.1877;0.2792;-0.5934;0.0174;
9.3520;-0.1263;-2.8223;0.1877;0.0524;-0.4014;3.7174;
9.3530;-2.0974;-4.3003;0.0123;0.0524;-0.4014;3.7174;
9.3550;-2.0974;-4.3003;0.0123;0.0524;-0.4014;3.7174;
9.4050;-2.0974;-4.3003;0.0123;0.0524;-0.4014;3.7174;
9.4070;-2.0974;-4.3003;0.0123;0.0524;-0.4014;3.7174;
9.4080;-2.0974;-4.3003;0.0123;0.1920;-0.5236;3.6476;
9.4090;0.0267;-2.5068;1.4171;0.1920;-0.5236;3.6476;
9.4770;0.0267;-2.5068;1.4171;0.1920;-0.5236;3.6476;
9.4780;0.0267;-2.5068;1.4171;0.1920;-0.5236;3.6476;
9.4790;0.0267;-2.5068;1.4171;0.2618;-0.6283;3.6302;
9.4800;2.6077;0.7200;0.1786;0.2618;-0.6283;3.6302;
9.5370;2.6077;0.7200;0.1786;0.2618;-0.6283;3.6302;
9.5390;2.6077;0.7200;0.1786;0.2618;-0.6283;3.6302;
9.5400;2.6077;0.7200;0.1786;0.4014;-0.7156;0.2443;
9.5410;-1.9275;5.1600;-1.3370;0.4014;-0.7156;0.2443;
9.6060;-1.9275;5.1600;-1.3370;0.4014;-0.7156;0.2443;
9.6070;-1.9275;5.1600;-1.3370;0.4014;-0.7156;0.2443;
9.6090;-1.9275;5.1600;-1.3370;0.1920;-0.3316;0.2967;
9.6100;-5.8128;3.7165;-0.8239;0.1920;-0.3316;0.2967;
9.6690;-5.8128;3.7165;-0.8239;0.1920;-0.3316;0.2967;
9.6710;-5.8128;3.7165;-0.8239;0.1920;-0.3316;0.2967;
9.6730;-5.8128;3.7165;-0.8239;-0.1396;0.1571;0.3490;
9.6750;0.1101;-0.0382;-5.3904;-0.1396;0.1571;0.3490;
9.7360;0.1101;-0.0382;-5.3904;-0.1396;0.1571;0.3490;
9.7370;0.1101;-0.0382;-5.3904;-0.1396;0.1571;0.3490;
9.7380;0.1101;-0.0382;-5.3904;-0.3316;0.6108;0.2443;
9.7390;5.1429;3.1857;-5.9884;-0.3316;0.6108;0.2443;
9.8010;5.1429;3.1857;-5.9884;-0.3316;0.6108;0.2443;
9.8030;5.1429;3.1857;-5.9884;-0.3316;0.6108;0.2443;
9.8040;5.1429;3.1857;-5.9884;-0.2094;0.6283;-2.8972;
9.8050;-0.1946;-0.7218;1.5090;-0.2094;0.6283;-2.8972;
9.8670;-0.1946;-0.7218;1.5090;-0.2094;0.6283;-2.8972;
9.8700;-0.1946;-0.7218;1.5090;-0.2094;0.6283;-2.8972;
9.8710;-0.1946;-0.7218;1.5090;-0.2094;1.0821;-2.8972;
9.8720;-3.0751;-3.5800;-0.5606;-0.2094;1.0821;-2.8972;
9.9330;-3.0751;-3.5800;-0.5606;-0.2094;1.0821;-2.8972;
9.9350;-3.0751;-3.5800;-0.5606;-0.2094;1.0821;-2.8972;
9.9370;-3.0751;-3.5800;-0.5606;-0.0872;1.5707;-2.6354;
9.9530;-3.3819;2.5598;4.9382;-0.0872;1.5707;-2.6354;
9.9990;-3.3819;2.5598;4.9382;-0.0872;1.5707;-2.6354;
10.0010;-3.3819;2.5598;4.9382;-0.0872;1.5707;-2.6354;
10.0020;-3.3819;2.5598;4.9382;-0.0872;2.0769;0.5585;
10.0030;2.2389;-3.3765;-4.9462;-0.0872;2.0769;0.5585;
10.0650;2.2389;-3.3765;-4.9462;-0.0872;2.0769;0.5585;
10.0670;2.2389;-3.3765;-4.9462;-0.0872;2.0769;0.5585;
10.0690;2.2389;-3.3765;-4.9462;0.0349;1.6405;0.4538;
10.0700;1.3423;2.0733;1.4003;0.0349;1.6405;0.4538;
10.1310;1.3423;2.0733;1.4003;0.0349;1.6405;0.4538;
10.1330;1.3423;2.0733;1.4003;0.0349;1.6405;0.4538;
10.1340;1.3423;2.0733;1.4003;0.2792;0.7330;0.0174;
10.1360;-1.1516;-0.1820;1.8637;0.2792;0.7330;0.0174;
10.1970;-1.1516;-0.1820;1.8637;0.2792;0.7330;0.0174;
10.1990;-1.1516;-0.1820;1.8637;0.2792;0.7330;0.0174;
10.2000;-1.1516;-0.1820;1.8637;0.4538;-0.0872;-0.3316;
10.2020;-1.5170;0.6075;1.3900;0.4538;-0.0872;-0.3316;
10.2630;-1.5170;0.6075;1.3900;0.4538;-0.0872;-0.3316;
10.2650;-1.5170;0.6075;1.3900;0.4538;-0.0872;-0.3316;
10.2660;-1.5170;0.6075;1.3900;0.5236;-0.4538;-0.3665;
10.2670;1.3428;-1.2530;-1.0001;0.5236;-0.4538;-0.3665;
10.3290;1.3428;-1.2530;-1.0001;0.5236;-0.4538;-0.3665;
10.3310;1.3428;-1.2530;-1.0001;0.5236;-0.4538;-0.3665;
10.3320;1.3428;-1.2530;-1.0001;0.5236;-0.4712;-0.1920;
10.3330;4.7177;0.3345;3.1004;0.5236;-0.4712;-0.1920;
10.3950;4.7177;0.3345;3.1004;0.5236;-0.4712;-0.1920;
10.3970;4.7177;0.3345;3.1004;0.5236;-0.4712;-0.1920;
10.3980;4.7177;0.3345;3.1004;0.5061;-0.2967;-0.0349;
10.4000;1.0426;-2.7381;1.9952;0.5061;-0.2967;-0.0349;
10.4610;1.0426;-2.7381;1.9952;0.5061;-0.2967;-0.0349;
10.4630;1.0426;-2.7381;1.9952;0.5061;-0.2967;-0.0349;
10.4670;1.0426;-2.7381;1.9952;0.4712;-0.1047;1.2566;
10.4680;-2.2710;-2.8059;-0.9354;0.4712;-0.1047;1.2566;
10.5350;-2.2710;-2.8059;-0.9354;0.4712;-0.1047;1.2566;
10.5360;-2.2710;-2.8059;-0.9354;0.4712;-0.1047;1.2566;
10.5370;-2.2710;-2.8059;-0.9354;0.4538;0.0000;3.5778;
10.5380;-2.6760;-3.0101;-0.0314;0.4538;0.0000;3.5778;
10.5940;-2.6760;-3.0101;-0.0314;0.4538;0.0000;3.5778;
10.5950;-2.6760;-3.0101;-0.0314;0.4538;0.0000;3.5778;
10.5960;-2.6760;-3.0101;-0.0314;0.4014;0.0000;3.5080;
10.5970;3.5385;-0.3198;-0.0404;0.4014;0.0000;3.5080;
10.6580;3.5385;-0.3198;-0.0404;0.4014;0.0000;3.5080;
10.6610;3.5385;-0.3198;-0.0404;0.4014;0.0000;3.5080;
10.6620;3.5385;-0.3198;-0.0404;0.2967;-0.0698;2.3561;
10.6620;0.5345;3.1596;-0.0002;0.2967;-0.0698;2.3561;
10.7240;0.5345;3.1596;-0.0002;0.2967;-0.0698;2.3561;
10.7270;0.5345;3.1596;-0.0002;0.2967;-0.0698;2.3561;
10.7280;0.5345;3.1596;-0.0002;0.1571;-0.0698;0.2269;
10.7280;-3.8580;5.0646;-1.1957;0.1571;-0.0698;0.2269;
10.7900;-3.8580;5.0646;-1.1957;0.1571;-0.0698;0.2269;
10.7930;-3.8580;5.0646;-1.1957;0.1571;-0.0698;0.2269;
10.7940;-3.8580;5.0646;-1.1957;-0.0349;0.0349;0.2967;
10.7950;-4.3158;3.3879;-1.8419;-0.0349;0.0349;0.2967;
10.8560;-4.3158;3.3879;-1.8419;-0.0349;0.0349;0.2967;
10.8590;-4.3158;3.3879;-1.8419;-0.0349;0.0349;0.2967;
10.8600;-4.3158;3.3879;-1.8419;-0.3316;0.3840;0.2094;
10.8600;9.5988;-4.6578;-4.1836;-0.3316;0.3840;0.2094;
10.9290;9.5988;-4.6578;-4.1836;-0.3316;0.3840;0.2094;
10.9290;9.5988;-4.6578;-4.1836;-0.3665;0.3840;-2.1990;
10.9300;2.6184;4.0148;-4.1091;-0.3665;0.3840;-2.1990;
10.9310;2.6184;4.0148;-4.1091;-0.3665;0.3840;-2.1990;
11.0000;2.6184;4.0148;-4.1091;-0.3665;0.3840;-2.1990;
11.0010;2.6184;4.0148;-4.1091;-0.3665;0.3840;-2.1990;
11.0010;2.6184;4.0148;-4.1091;-0.4363;0.6108;-3.3858;
11.0020;-4.8729;-1.9645;0.5018;-0.4363;0.6108;-3.3858;
11.0600;-4.8729;-1.9645;0.5018;-0.4363;0.6108;-3.3858;
11.0610;-4.8729;-1.9645;0.5018;-0.5410;0.8552;-3.1938;
11.0620;-4.4632;2.0252;4.8820;-0.5410;0.8552;-3.1938;
11.0630;-4.4632;2.0252;4.8820;-0.5410;0.8552;-3.1938;
11.1330;-4.4632;2.0252;4.8820;-0.5410;0.8552;-3.1938;
11.1340;-4.4632;2.0252;4.8820;-0.5934;1.0297;-0.6632;
11.1350;-2.2707;-0.7501;2.3361;-0.5934;1.0297;-0.6632;
11.1360;-2.2707;-0.7501;2.3361;-0.5934;1.0297;-0.6632;
11.1960;-2.2707;-0.7501;2.3361;-0.5934;1.0297;-0.6632;
11.1990;-2.2707;-0.7501;2.3361;-0.5759;0.9075;0.4014;
11.2010;2.5783;0.7719;-0.8745;-0.5759;0.9075;0.4014;
11.2050;2.5783;0.7719;-0.8745;-0.5759;0.9075;0.4014;
11.2650;2.5783;0.7719;-0.8745;-0.5759;0.9075;0.4014;
11.2660;2.5783;0.7719;-0.8745;-0.2967;0.2269;0.0524;
11.2670;0.1707;0.9594;2.0031;-0.2967;0.2269;0.0524;
11.2680;0.1707;0.9594;2.0031;-0.2967;0.2269;0.0524;
11.3180;0.1707;0.9594;2.0031;-0.2967;0.2269;0.0524;
11.3210;0.1707;0.9594;2.0031;-0.2967;0.2269;0.0524;
11.3220;0.1707;0.9594;2.0031;0.0872;-0.4363;-0.4189;
11.3220;-0.3940;1.2690;0.3480;0.0872;-0.4363;-0.4189;
11.3880;-0.3940;1.2690;0.3480;0.0872;-0.4363;-0.4189;
11.3890;-0.3940;1.2690;0.3480;0.0872;-0.4363;-0.4189;
11.3900;-0.3940;1.2690;0.3480;0.1920;-0.5585;-0.4189;
11.3910;-2.2270;0.1988;2.3898;0.1920;-0.5585;-0.4189;
11.4500;-2.2270;0.1988;2.3898;0.1920;-0.5585;-0.4189;
11.4530;-2.2270;0.1988;2.3898;0.1920;-0.5585;-0.4189;
11.4540;-2.2270;0.1988;2.3898;0.2792;-0.4887;-0.1571;
11.4550;1.8444;-0.4087;2.4387;0.2792;-0.4887;-0.1571;
11.5250;1.8444;-0.4087;2.4387;0.2792;-0.4887;-0.1571;
11.5270;1.8444;-0.4087;2.4387;0.2792;-0.4887;-0.1571;
11.5290;1.8444;-0.4087;2.4387;0.2967;-0.4363;0.0000;
11.5300;2.6022;-0.6570;2.5676;0.2967;-0.4363;0.0000;
11.5830;2.6022;-0.6570;2.5676;0.2967;-0.4363;0.0000;
11.5850;2.6022;-0.6570;2.5676;0.2967;-0.4363;0.0000;
11.5860;2.6022;-0.6570;2.5676;0.2967;-0.4189;0.1571;
11.5880;-0.7594;-2.1297;-1.6277;0.2967;-0.4189;0.1571;
11.6490;-0.7594;-2.1297;-1.6277;0.2967;-0.4189;0.1571;
11.6510;-0.7594;-2.1297;-1.6277;0.2967;-0.4189;0.1571;
11.6520;-0.7594;-2.1297;-1.6277;0.3141;-0.4538;0.1920;
11.6530;-3.3139;-4.8350;1.2144;0.3141;-0.4538;0.1920;
11.7150;-3.3139;-4.8350;1.2144;0.3141;-0.4538;0.1920;
11.7170;-3.3139;-4.8350;1.2144;0.3141;-0.4538;0.1920;
11.7180;-3.3139;-4.8350;1.2144;0.2792;-0.3665;4.0665;
11.7190;3.4292;-2.1215;0.5227;0.2792;-0.3665;4.0665;
11.7810;3.4292;-2.1215;0.5227;0.2792;-0.3665;4.0665;
11.7830;3.4292;-2.1215;0.5227;0.2792;-0.3665;4.0665;
11.7840;3.4292;-2.1215;0.5227;0.2443;-0.2269;4.0839;
11.7850;2.6564;3.9697;0.8148;0.2443;-0.2269;4.0839;
11.8470;2.6564;3.9697;0.8148;0.2443;-0.2269;4.0839;
11.8490;2.6564;3.9697;0.8148;0.2443;-0.2269;4.0839;
11.8500;2.6564;3.9697;0.8148;0.1222;0.0349;4.1363;
11.8500;-2.6022;5.5575;-1.3078;0.1222;0.0349;4.1363;
11.9120;-2.6022;5.5575;-1.3078;0.1222;0.0349;4.1363;
11.9150;-2.6022;5.5575;-1.3078;0.1222;0.0349;4.1363;
11.9160;-2.6022;5.5575;-1.3078;-0.0174;0.3840;1.5707;
11.9160;-4.5172;3.5766;-0.5258;-0.0174;0.3840;1.5707;
11.9790;-4.5172;3.5766;-0.5258;-0.0174;0.3840;1.5707;
11.9820;-4.5172;3.5766;-0.5258;-0.0174;0.3840;1.5707;
11.9830;-4.5172;3.5766;-0.5258;-0.2792;0.7679;0.2269;
11.9840;-0.2687;0.6556;-3.1717;-0.2792;0.7679;0.2269;
12.0450;-0.2687;0.6556;-3.1717;-0.2792;0.7679;0.2269;
12.0470;-0.2687;0.6556;-3.1717;-0.2792;0.7679;0.2269;
12.0490;-0.2687;0.6556;-3.1717;-0.5585;1.0297;0.0349;
12.0500;5.1521;-1.4926;-5.8311;-0.5585;1.0297;0.0349;
12.1110;5.1521;-1.4926;-5.8311;-0.5585;1.0297;0.0349;
12.1130;5.1521;-1.4926;-5.8311;-0.5585;1.0297;0.0349;
12.1140;5.1521;-1.4926;-5.8311;-0.5236;0.9599;-3.3335;
12.1160;1.4365;-1.7405;3.5836;-0.5236;0.9599;-3.3335;
12.1770;1.4365;-1.7405;3.5836;-0.5236;0.9599;-3.3335;
12.1790;1.4365;-1.7405;3.5836;-0.5236;0.9599;-3.3335;
12.1800;1.4365;-1.7405;3.5836;-0.5236;1.0472;-3.2288;
12.1810;-3.2886;-1.5061;0.1975;-0.5236;1.0472;-3.2288;
12.2430;-3.2886;-1.5061;0.1975;-0.5236;1.0472;-3.2288;
12.2450;-3.2886;-1.5061;0.1975;-0.5236;1.0472;-3.2288;
12.2460;-3.2886;-1.5061;0.1975;-0.4712;1.1170;-2.9495;
12.2470;-3.7465;2.1153;4.9957;-0.4712;1.1170;-2.9495;
12.3090;-3.7465;2.1153;4.9957;-0.4712;1.1170;-2.9495;
12.3110;-3.7465;2.1153;4.9957;-0.4712;1.1170;-2.9495;
12.3120;-3.7465;2.1153;4.9957;-0.4887;1.3439;0.4363;
12.3130;-1.9393;-2.3139;2.8309;-0.4887;1.3439;0.4363;
12.3750;-1.9393;-2.3139;2.8309;-0.4887;1.3439;0.4363;
12.3770;-1.9393;-2.3139;2.8309;-0.4887;1.3439;0.4363;
12.3780;-1.9393;-2.3139;2.8309;-0.2443;0.7156;0.2443;
12.3790;1.0674;2.6190;1.7360;-0.2443;0.7156;0.2443;
12.4410;1.0674;2.6190;1.7360;-0.2443;0.7156;0.2443;
12.4430;1.0674;2.6190;1.7360;-0.2443;0.7156;0.2443;
12.4460;1.0674;2.6190;1.7360;0.0174;-0.1222;-0.2443;
12.4470;-1.1661;0.3082;2.3241;0.0174;-0.1222;-0.2443;
12.5070;-1.1661;0.3082;2.3241;0.0174;-0.1222;-0.2443;
12.5090;-1.1661;0.3082;2.3241;0.0174;-0.1222;-0.2443;
12.5110;-1.1661;0.3082;2.3241;0.2443;-0.8028;-0.6108;
12.5120;0.7492;1.2952;0.1402;0.2443;-0.8028;-0.6108;
12.5730;0.7492;1.2952;0.1402;0.2443;-0.8028;-0.6108;
12.5750;0.7492;1.2952;0.1402;0.2443;-0.8028;-0.6108;
12.5760;0.7492;1.2952;0.1402;0.3490;-1.0297;-0.5934;
12.5770;-0.0291;-0.6381;0.6022;0.3490;-1.0297;-0.5934;
12.6390;-0.0291;-0.6381;0.6022;0.3490;-1.0297;-0.5934;
12.6410;-0.0291;-0.6381;0.6022;0.3490;-1.0297;-0.5934;
12.6420;-0.0291;-0.6381;0.6022;0.3665;-0.9773;-0.3141;
12.6430;2.7994;-0.3712;2.2195;0.3665;-0.9773;-0.3141;
12.7050;2.7994;-0.3712;2.2195;0.3665;-0.9773;-0.3141;
12.7070;2.7994;-0.3712;2.2195;0.3665;-0.9773;-0.3141;
12.7080;2.7994;-0.3712;2.2195;0.3665;-0.5759;0.0698;
12.7090;3.1139;-3.1534;2.3989;0.3665;-0.5759;0.0698;
12.7710;3.1139;-3.1534;2.3989;0.3665;-0.5759;0.0698;
12.7730;3.1139;-3.1534;2.3989;0.3665;-0.5759;0.0698;
12.7740;3.1139;-3.1534;2.3989;0.4538;-0.2618;2.6354;
12.7750;-1.0515;-2.9005;-1.3959;0.4538;-0.2618;2.6354;
12.8370;-1.0515;-2.9005;-1.3959;0.4538;-0.2618;2.6354;
12.8390;-1.0515;-2.9005;-1.3959;0.4538;-0.2618;2.6354;
12.8400;-1.0515;-2.9005;-1.3959;0.5934;-0.1920;3.7523;
12.8410;-4.2212;-4.1062;1.0371;0.5934;-0.1920;3.7523;
12.9030;-4.2212;-4.1062;1.0371;0.5934;-0.1920;3.7523;
12.9050;-4.2212;-4.1062;1.0371;0.5934;-0.1920;3.7523;
12.9060;-4.2212;-4.1062;1.0371;0.6283;-0.2443;3.5429;
12.9070;2.6107;-2.3894;0.5884;0.6283;-0.2443;3.5429;
12.9700;2.6107;-2.3894;0.5884;0.6283;-0.2443;3.5429;
12.9720;2.6107;-2.3894;0.5884;0.6283;-0.2443;3.5429;
12.9820;2.6107;-2.3894;0.5884;0.4538;-0.3840;1.1170;
12.9840;-0.8170;4.3305;-0.3585;0.4538;-0.3840;1.1170;
13.0350;-0.8170;4.3305;-0.3585;0.4538;-0.3840;1.1170;
13.0600;-0.8170;4.3305;-0.3585;0.4538;-0.3840;1.1170;
13.0610;-0.8170;4.3305;-0.3585;0.2094;-0.3316;0.1396;
13.0620;-4.2133;5.0484;-1.1761;0.2094;-0.3316;0.1396;
13.1060;-4.2133;5.0484;-1.1761;0.2094;-0.3316;0.1396;
13.1070;-4.2133;5.0484;-1.1761;0.2094;-0.3316;0.1396;
13.1080;-4.2133;5.0484;-1.1761;0.0000;-0.0524;0.3840;
13.1100;-4.2299;4.2460;-1.0290;0.0000;-0.0524;0.3840;
13.1890;-4.2299;4.2460;-1.0290;0.0000;-0.0524;0.3840;
13.1900;-4.2299;4.2460;-1.0290;-0.2443;0.3490;0.3665;
13.1920;7.6655;-4.7627;-7.1704;-0.2443;0.3490;0.3665;
13.1930;7.6655;-4.7627;-7.1704;-0.2443;0.3490;0.3665;
13.2380;7.6655;-4.7627;-7.1704;-0.2443;0.3490;0.3665;
13.2400;7.6655;-4.7627;-7.1704;-0.4538;0.5236;-1.7453;
13.2410;1.5974;2.7065;-5.2239;-0.4538;0.5236;-1.7453;
13.2430;1.5974;2.7065;-5.2239;-0.4538;0.5236;-1.7453;
13.3180;1.5974;2.7065;-5.2239;-0.4538;0.5236;-1.7453;
13.3190;1.5974;2.7065;-5.2239;-0.5236;0.7156;-2.9844;
13.3200;0.2186;-6.3771;0.8590;-0.5236;0.7156;-2.9844;
13.3210;0.2186;-6.3771;0.8590;-0.5236;0.7156;-2.9844;
13.3650;0.2186;-6.3771;0.8590;-0.5236;0.7156;-2.9844;
13.3670;0.2186;-6.3771;0.8590;-0.5236;0.7156;-2.9844;
13.3680;0.2186;-6.3771;0.8590;-0.5061;1.0472;-2.9495;
13.3690;-5.5184;3.0019;1.3466;-0.5061;1.0472;-2.9495;
13.4430;-5.5184;3.0019;1.3466;-0.5061;1.0472;-2.9495;
13.4450;-5.5184;3.0019;1.3466;-0.4189;1.4137;-1.5358;
13.4460;-1.9335;0.0208;3.5413;-0.4189;1.4137;-1.5358;
13.4470;-1.9335;0.0208;3.5413;-0.4189;1.4137;-1.5358;
13.4970;-1.9335;0.0208;3.5413;-0.4189;1.4137;-1.5358;
13.4990;-1.9335;0.0208;3.5413;-0.4189;1.4137;-1.5358;
13.5000;-1.9335;0.0208;3.5413;-0.4014;1.4835;0.4014;
13.5010;2.1984;0.8378;0.0706;-0.4014;1.4835;0.4014;
13.5740;2.1984;0.8378;0.0706;-0.4014;1.4835;0.4014;
13.5750;2.1984;0.8378;0.0706;-0.4014;1.4835;0.4014;
13.5760;2.1984;0.8378;0.0706;-0.1920;0.8377;0.2443;
13.5770;-0.4807;0.8086;1.6170;-0.1920;0.8377;0.2443;
13.6520;-0.4807;0.8086;1.6170;-0.1920;0.8377;0.2443;
13.6530;-0.4807;0.8086;1.6170;-0.1920;0.8377;0.2443;
13.6530;-0.4807;0.8086;1.6170;0.0872;-0.3141;-0.2443;
13.6890;0.4463;1.3082;-0.2121;0.0872;-0.3141;-0.2443;
13.6980;0.4463;1.3082;-0.2121;0.0872;-0.3141;-0.2443;
13.6980;0.4463;1.3082;-0.2121;0.2967;-0.9075;-0.3665;
13.6990;-1.0535;-1.3913;0.4779;0.2967;-0.9075;-0.3665;
13.7000;-1.0535;-1.3913;0.4779;0.2967;-0.9075;-0.3665;
13.7610;-1.0535;-1.3913;0.4779;0.2967;-0.9075;-0.3665;
13.7630;-1.0535;-1.3913;0.4779;0.2967;-0.9075;-0.3665;
13.7640;-1.0535;-1.3913;0.4779;0.3490;-1.0821;-0.2618;
13.7650;2.0672;0.5934;1.8318;0.3490;-1.0821;-0.2618;
13.8270;2.0672;0.5934;1.8318;0.3490;-1.0821;-0.2618;
13.8290;2.0672;0.5934;1.8318;0.3490;-1.0821;-0.2618;
13.8300;2.0672;0.5934;1.8318;0.3665;-1.0297;-0.0872;
13.8310;4.0593;0.1299;1.6237;0.3665;-1.0297;-0.0872;
13.8930;4.0593;0.1299;1.6237;0.3665;-1.0297;-0.0872;
13.8950;4.0593;0.1299;1.6237;0.3665;-1.0297;-0.0872;
13.8960;4.0593;0.1299;1.6237;0.3840;-0.6458;2.2514;
13.8970;0.9802;-1.6828;0.9276;0.3840;-0.6458;2.2514;
13.9580;0.9802;-1.6828;0.9276;0.3840;-0.6458;2.2514;
13.9610;0.9802;-1.6828;0.9276;0.3840;-0.6458;2.2514;
13.9620;0.9802;-1.6828;0.9276;0.4887;-0.4538;3.5255;
13.9620;-3.4885;-6.2709;0.4831;0.4887;-0.4538;3.5255;
14.0250;-3.4885;-6.2709;0.4831;0.4887;-0.4538;3.5255;
14.0270;-3.4885;-6.2709;0.4831;0.4887;-0.4538;3.5255;
14.0280;-3.4885;-6.2709;0.4831;0.5410;-0.4189;3.3684;
14.0280;1.6190;-4.0396;0.6370;0.5410;-0.4189;3.3684;
14.0910;1.6190;-4.0396;0.6370;0.5410;-0.4189;3.3684;
14.0930;1.6190;-4.0396;0.6370;0.5410;-0.4189;3.3684;
14.0940;1.6190;-4.0396;0.6370;0.5410;-0.4887;1.0995;
14.0950;3.1084;1.4515;1.2278;0.5410;-0.4887;1.0995;
14.1560;3.1084;1.4515;1.2278;0.5410;-0.4887;1.0995;
14.1590;3.1084;1.4515;1.2278;0.5410;-0.4887;1.0995;
14.1600;3.1084;1.4515;1.2278;0.3316;-0.4189;-0.0524;
14.1610;-2.0144;6.0475;-1.2144;0.3316;-0.4189;-0.0524;
14.2230;-2.0144;6.0475;-1.2144;0.3316;-0.4189;-0.0524;
14.2250;-2.0144;6.0475;-1.2144;0.3316;-0.4189;-0.0524;
14.2270;-2.0144;6.0475;-1.2144;-0.0174;-0.0174;0.2967;
14.2280;-5.1007;4.8577;-0.6576;-0.0174;-0.0174;0.2967;
14.2890;-5.1007;4.8577;-0.6576;-0.0174;-0.0174;0.2967;
14.2910;-5.1007;4.8577;-0.6576;-0.0174;-0.0174;0.2967;
14.2920;-5.1007;4.8577;-0.6576;-0.2967;0.3665;0.3316;
14.2940;3.3416;-1.3780;-4.8896;-0.2967;0.3665;0.3316;
14.3700;3.3416;-1.3780;-4.8896;-0.2967;0.3665;0.3316;
14.3710;3.3416;-1.3780;-4.8896;-0.2967;0.3665;0.3316;
14.3730;3.3416;-1.3780;-4.8896;-0.4887;0.6458;-0.9599;
14.4120;4.0297;1.2046;-5.9574;-0.4887;0.6458;-0.9599;
14.4210;4.0297;1.2046;-5.9574;-0.4887;0.6458;-0.9599;
14.4230;4.0297;1.2046;-5.9574;-0.4887;0.6458;-0.9599;
14.4240;4.0297;1.2046;-5.9574;-0.5061;0.6806;-3.1415;
14.4250;-1.3056;0.4115;-1.3074;-0.5061;0.6806;-3.1415;
14.4870;-1.3056;0.4115;-1.3074;-0.5061;0.6806;-3.1415;
14.4890;-1.3056;0.4115;-1.3074;-0.5061;0.6806;-3.1415;
14.4900;-1.3056;0.4115;-1.3074;-0.5236;0.9773;-3.0717;
14.4920;-0.4900;-4.3839;0.8866;-0.5236;0.9773;-3.0717;
14.5530;-0.4900;-4.3839;0.8866;-0.5236;0.9773;-3.0717;
14.5550;-0.4900;-4.3839;0.8866;-0.5236;0.9773;-3.0717;
14.5570;-0.4900;-4.3839;0.8866;-0.5236;1.4137;-1.5707;
14.5580;-3.3973;2.0748;3.7034;-0.5236;1.4137;-1.5707;
14.6530;-3.3973;2.0748;3.7034;-0.5236;1.4137;-1.5707;
14.7400;-3.3973;2.0748;3.7034;-0.5236;1.4137;-1.5707;
14.7410;-3.3973;2.0748;3.7034;-0.5236;1.4137;-1.5707;
14.7420;-3.3973;2.0748;3.7034;-0.0174;0.0872;-0.1396;
14.7430;-3.3973;2.0748;3.7034;-0.0174;0.0872;-0.1396;
14.7440;-3.3973;2.0748;3.7034;-0.0174;0.0872;-0.1396;
14.7450;-0.4199;-0.0183;3.3806;-0.0174;0.0872;-0.1396;
14.7450;-0.4199;-0.0183;3.3806;-0.0174;0.0872;-0.1396;
14.7460;-0.4199;-0.0183;3.3806;-0.0174;0.0872;-0.1396;
14.7470;-0.4199;-0.0183;3.3806;-0.0174;0.0872;-0.1396;
14.7480;-0.4199;-0.0183;3.3806;-0.0174;0.0872;-0.1396;
14.7500;-0.4199;-0.0183;3.3806;-0.0174;0.0872;-0.1396;
14.7530;-0.4199;-0.0183;3.3806;-0.0174;0.0872;-0.1396;
14.7540;-0.4199;-0.0183;3.3806;0.0698;-0.1571;-0.2792;
14.7550;1.0705;0.6729;-0.7421;0.0698;-0.1571;-0.2792;
14.8160;1.0705;0.6729;-0.7421;0.0698;-0.1571;-0.2792;
14.8190;1.0705;0.6729;-0.7421;0.0698;-0.1571;-0.2792;
14.8200;1.0705;0.6729;-0.7421;0.3316;-0.8028;-0.5410;
14.8200;-2.2149;0.3018;1.2468;0.3316;-0.8028;-0.5410;
14.8820;-2.2149;0.3018;1.2468;0.3316;-0.8028;-0.5410;
14.8850;-2.2149;0.3018;1.2468;0.3316;-0.8028;-0.5410;
14.8860;-2.2149;0.3018;1.2468;0.4014;-1.1519;-0.5061;
14.8860;0.4501;-1.5241;-1.5000;0.4014;-1.1519;-0.5061;
14.9480;0.4501;-1.5241;-1.5000;0.4014;-1.1519;-0.5061;
14.9510;0.4501;-1.5241;-1.5000;0.4014;-1.1519;-0.5061;
14.9520;0.4501;-1.5241;-1.5000;0.3840;-1.2391;-0.2792;
14.9520;3.4017;0.5233;2.3770;0.3840;-1.2391;-0.2792;
15.0150;3.4017;0.5233;2.3770;0.3840;-1.2391;-0.2792;
15.0170;3.4017;0.5233;2.3770;0.3840;-1.2391;-0.2792;
15.0190;3.4017;0.5233;2.3770;0.3490;-0.9424;1.1344;
15.0200;3.0532;-2.1626;1.8764;0.3490;-0.9424;1.1344;
15.0810;3.0532;-2.1626;1.8764;0.3490;-0.9424;1.1344;
15.0830;3.0532;-2.1626;1.8764;0.3490;-0.9424;1.1344;
15.1080;3.0532;-2.1626;1.8764;0.4014;-0.6108;3.4906;
15.1100;-1.0426;-2.8895;-0.3370;0.4014;-0.6108;3.4906;
15.1470;-1.0426;-2.8895;-0.3370;0.4014;-0.6108;3.4906;
15.1580;-1.0426;-2.8895;-0.3370;0.4014;-0.6108;3.4906;
15.1600;-1.0426;-2.8895;-0.3370;0.4538;-0.4189;3.3858;
15.1610;-4.0137;-4.1347;0.1477;0.4538;-0.4189;3.3858;
15.2350;-4.0137;-4.1347;0.1477;0.4538;-0.4189;3.3858;
15.2360;-4.0137;-4.1347;0.1477;0.4538;-0.4189;3.3858;
15.2370;-4.0137;-4.1347;0.1477;0.4712;-0.3490;3.2288;
15.2380;4.8348;-2.8798;-0.9812;0.4712;-0.3490;3.2288;
15.2830;4.8348;-2.8798;-0.9812;0.4712;-0.3490;3.2288;
15.2850;4.8348;-2.8798;-0.9812;0.3665;-0.3490;-0.1222;
15.2860;-0.1444;4.1904;0.5003;0.3665;-0.3490;-0.1222;
15.2870;-0.1444;4.1904;0.5003;0.3665;-0.3490;-0.1222;
15.3690;-0.1444;4.1904;0.5003;0.3665;-0.3490;-0.1222;
15.3710;-0.1444;4.1904;0.5003;0.1396;-0.1222;-0.0174;
15.3720;-4.0274;4.9212;-1.5827;0.1396;-0.1222;-0.0174;
15.3730;-4.0274;4.9212;-1.5827;0.1396;-0.1222;-0.0174;
15.4110;-4.0274;4.9212;-1.5827;0.1396;-0.1222;-0.0174;
15.4130;-4.0274;4.9212;-1.5827;0.1396;-0.1222;-0.0174;
15.4140;-4.0274;4.9212;-1.5827;-0.0872;0.1396;0.2269;
15.4150;-4.5133;2.9357;-0.4483;-0.0872;0.1396;0.2269;
15.4920;-4.5133;2.9357;-0.4483;-0.0872;0.1396;0.2269;
15.4940;-4.5133;2.9357;-0.4483;-0.2967;0.4189;0.2792;
15.4950;11.0316;-5.3654;-4.7961;-0.2967;0.4189;0.2792;
15.4960;11.0316;-5.3654;-4.7961;-0.2967;0.4189;0.2792;
15.5430;11.0316;-5.3654;-4.7961;-0.2967;0.4189;0.2792;
15.5450;11.0316;-5.3654;-4.7961;-0.2967;0.4189;0.2792;
15.5470;11.0316;-5.3654;-4.7961;-0.4363;0.5061;-1.8849;
15.5480;1.1324;6.8041;-3.8770;-0.4363;0.5061;-1.8849;
15.6190;1.1324;6.8041;-3.8770;-0.4363;0.5061;-1.8849;
15.6200;1.1324;6.8041;-3.8770;-0.4363;0.6458;-3.0891;
15.6210;-1.6436;-8.7224;-1.5586;-0.4363;0.6458;-3.0891;
15.6220;-1.6436;-8.7224;-1.5586;-0.4363;0.6458;-3.0891;
15.6760;-1.6436;-8.7224;-1.5586;-0.4363;0.6458;-3.0891;
15.6770;-1.6436;-8.7224;-1.5586;-0.4363;0.6458;-3.0891;
15.6790;-1.6436;-8.7224;-1.5586;-0.4014;0.9948;-3.0019;
15.6800;-4.6676;4.1345;2.5399;-0.4014;0.9948;-3.0019;
15.7500;-4.6676;4.1345;2.5399;-0.4014;0.9948;-3.0019;
15.7510;-4.6676;4.1345;2.5399;-0.2967;1.3439;-1.5882;
15.7520;-2.1013;-0.4308;2.6451;-0.2967;1.3439;-1.5882;
15.7550;-2.1013;-0.4308;2.6451;-0.2967;1.3439;-1.5882;
15.8070;-2.1013;-0.4308;2.6451;-0.2967;1.3439;-1.5882;
15.8090;-2.1013;-0.4308;2.6451;-0.2967;1.3439;-1.5882;
15.8100;-2.1013;-0.4308;2.6451;-0.2094;1.3264;0.4712;
15.8110;0.6392;2.9263;1.7828;-0.2094;1.3264;0.4712;
15.8820;0.6392;2.9263;1.7828;-0.2094;1.3264;0.4712;
15.8830;0.6392;2.9263;1.7828;-0.2094;1.3264;0.4712;
15.8840;0.6392;2.9263;1.7828;-0.0524;0.6981;0.1222;
15.8850;-0.9390;-0.6911;2.1592;-0.0524;0.6981;0.1222;
15.9390;-0.9390;-0.6911;2.1592;-0.0524;0.6981;0.1222;
15.9410;-0.9390;-0.6911;2.1592;-0.0524;0.6981;0.1222;
15.9420;-0.9390;-0.6911;2.1592;0.1047;0.0000;-0.2618;
15.9430;-1.6089;0.6170;-0.1095;0.1047;0.0000;-0.2618;
16.0060;-1.6089;0.6170;-0.1095;0.1047;0.0000;-0.2618;
16.0070;-1.6089;0.6170;-0.1095;0.1047;0.0000;-0.2618;
16.0080;-1.6089;0.6170;-0.1095;0.2618;-0.4014;-0.3665;
16.0090;1.7812;-0.1778;-0.6299;0.2618;-0.4014;-0.3665;
16.0710;1.7812;-0.1778;-0.6299;0.2618;-0.4014;-0.3665;
16.0730;1.7812;-0.1778;-0.6299;0.2618;-0.4014;-0.3665;
16.0740;1.7812;-0.1778;-0.6299;0.3316;-0.4538;-0.2269;
16.0750;3.1060;-0.2229;3.1228;0.3316;-0.4538;-0.2269;
16.1370;3.1060;-0.2229;3.1228;0.3316;-0.4538;-0.2269;
16.1390;3.1060;-0.2229;3.1228;0.3316;-0.4538;-0.2269;
16.1410;3.1060;-0.2229;3.1228;0.3665;-0.3141;-0.0349;
16.1420;5.1749;-1.2680;0.6535;0.3665;-0.3141;-0.0349;
16.2030;5.1749;-1.2680;0.6535;0.3665;-0.3141;-0.0349;
16.2060;5.1749;-1.2680;0.6535;0.3665;-0.3141;-0.0349;
16.2070;5.1749;-1.2680;0.6535;0.3840;-0.1745;0.0872;
16.2090;-0.8074;-1.2444;-0.5873;0.3840;-0.1745;0.0872;
16.2690;-0.8074;-1.2444;-0.5873;0.3840;-0.1745;0.0872;
16.2710;-0.8074;-1.2444;-0.5873;0.3840;-0.1745;0.0872;
16.2720;-0.8074;-1.2444;-0.5873;0.3840;-0.1745;1.4311;
16.2730;-3.5796;-5.0513;1.2849;0.3840;-0.1745;1.4311;
16.3360;-3.5796;-5.0513;1.2849;0.3840;-0.1745;1.4311;
16.3370;-3.5796;-5.0513;1.2849;0.3840;-0.1745;1.4311;
16.3380;-3.5796;-5.0513;1.2849;0.3840;-0.1396;3.7174;
16.3390;5.8016;-1.1381;-1.4673;0.3840;-0.1396;3.7174;
16.4010;5.8016;-1.1381;-1.4673;0.3840;-0.1396;3.7174;
16.4030;5.8016;-1.1381;-1.4673;0.3840;-0.1396;3.7174;
16.4040;5.8016;-1.1381;-1.4673;0.3316;-0.1396;3.7000;
16.4050;-0.5690;2.8321;1.1231;0.3316;-0.1396;3.7000;
16.4670;-0.5690;2.8321;1.1231;0.3316;-0.1396;3.7000;
16.4700;-0.5690;2.8321;1.1231;0.3316;-0.1396;3.7000;
16.4710;-0.5690;2.8321;1.1231;0.2443;-0.0872;2.4957;
16.4720;-4.8383;5.4907;-1.6392;0.2443;-0.0872;2.4957;
16.5330;-4.8383;5.4907;-1.6392;0.2443;-0.0872;2.4957;
16.5350;-4.8383;5.4907;-1.6392;0.2443;-0.0872;2.4957;
16.5360;-4.8383;5.4907;-1.6392;0.0872;-0.0698;0.2967;
16.5380;-4.1972;3.9642;-0.6810;0.0872;-0.0698;0.2967;
16.5990;-4.1972;3.9642;-0.6810;0.0872;-0.0698;0.2967;
16.6010;-4.1972;3.9642;-0.6810;0.0872;-0.0698;0.2967;
16.6020;-4.1972;3.9642;-0.6810;-0.0872;0.0872;0.2967;
16.6040;9.5818;-4.1306;-6.2132;-0.0872;0.0872;0.2967;
16.6650;9.5818;-4.1306;-6.2132;-0.0872;0.0872;0.2967;
16.6670;9.5818;-4.1306;-6.2132;-0.0872;0.0872;0.2967;
16.6680;9.5818;-4.1306;-6.2132;-0.2792;0.2618;-0.9075;
16.6690;1.4753;4.6680;-2.0918;-0.2792;0.2618;-0.9075;
16.7310;1.4753;4.6680;-2.0918;-0.2792;0.2618;-0.9075;
16.7330;1.4753;4.6680;-2.0918;-0.2792;0.2618;-0.9075;
16.7380;1.4753;4.6680;-2.0918;-0.3316;0.4014;-2.9146;
16.7390;-1.3601;-8.0764;-2.8150;-0.3316;0.4014;-2.9146;
16.7970;-1.3601;-8.0764;-2.8150;-0.3316;0.4014;-2.9146;
16.7990;-1.3601;-8.0764;-2.8150;-0.3316;0.4014;-2.9146;
16.8000;-1.3601;-8.0764;-2.8150;-0.3840;0.8726;-2.8448;
16.8010;-4.4723;2.6952;1.4463;-0.3840;0.8726;-2.8448;
16.8630;-4.4723;2.6952;1.4463;-0.3840;0.8726;-2.8448;
16.8650;-4.4723;2.6952;1.4463;-0.3840;0.8726;-2.8448;
16.8660;-4.4723;2.6952;1.4463;-0.3840;1.2740;-1.4137;
16.8670;-1.8089;0.1139;3.3620;-0.3840;1.2740;-1.4137;
16.9290;-1.8089;0.1139;3.3620;-0.3840;1.2740;-1.4137;
16.9310;-1.8089;0.1139;3.3620;-0.3840;1.2740;-1.4137;
16.9320;-1.8089;0.1139;3.3620;-0.3490;1.3089;0.4189;
16.9330;3.0343;-0.8848;-4.1819;-0.3490;1.3089;0.4189;
16.9950;3.0343;-0.8848;-4.1819;-0.3490;1.3089;0.4189;
16.9970;3.0343;-0.8848;-4.1819;-0.3490;1.3089;0.4189;
16.9980;3.0343;-0.8848;-4.1819;-0.1571;0.6458;0.1396;
16.9990;0.3426;2.2450;2.4478;-0.1571;0.6458;0.1396;
17.0610;0.3426;2.2450;2.4478;-0.1571;0.6458;0.1396;
17.0630;0.3426;2.2450;2.4478;-0.1571;0.6458;0.1396;
17.0640;0.3426;2.2450;2.4478;0.1222;-0.1047;-0.3141;
17.0650;-0.6365;-0.5071;-2.4583;0.1222;-0.1047;-0.3141;
17.1280;-0.6365;-0.5071;-2.4583;0.1222;-0.1047;-0.3141;
17.1290;-0.6365;-0.5071;-2.4583;0.1222;-0.1047;-0.3141;
17.1310;-0.6365;-0.5071;-2.4583;0.3316;-0.8203;-0.4887;
17.1320;-1.0023;-0.0872;1.7918;0.3316;-0.8203;-0.4887;
17.1930;-1.0023;-0.0872;1.7918;0.3316;-0.8203;-0.4887;
17.1950;-1.0023;-0.0872;1.7918;0.3316;-0.8203;-0.4887;
17.2030;-1.0023;-0.0872;1.7918;0.3316;-0.9599;-0.2967;
17.2040;2.7996;-0.1157;1.5193;0.3316;-0.9599;-0.2967;
17.2590;2.7996;-0.1157;1.5193;0.3316;-0.9599;-0.2967;
17.2820;2.7996;-0.1157;1.5193;0.3316;-0.9599;-0.2967;
17.2830;2.7996;-0.1157;1.5193;0.2792;-0.8552;-0.0698;
17.2850;5.0517;-0.1416;2.5168;0.2792;-0.8552;-0.0698;
17.3300;5.0517;-0.1416;2.5168;0.2792;-0.8552;-0.0698;
17.3310;5.0517;-0.1416;2.5168;0.2792;-0.8552;-0.0698;
17.3330;5.0517;-0.1416;2.5168;0.2443;-0.6283;0.8726;
17.3340;0.4179;-2.2625;1.5379;0.2443;-0.6283;0.8726;
17.4210;0.4179;-2.2625;1.5379;0.2443;-0.6283;0.8726;
17.4230;0.4179;-2.2625;1.5379;0.3141;-0.3141;3.2986;
17.4250;-2.3454;-3.3768;-0.8262;0.3141;-0.3141;3.2986;
17.4260;-2.3454;-3.3768;-0.8262;0.3141;-0.3141;3.2986;
17.4590;-2.3454;-3.3768;-0.8262;0.3141;-0.3141;3.2986;
17.4600;-2.3454;-3.3768;-0.8262;0.3665;-0.0698;3.1938;
17.4610;-4.7248;-4.3157;2.0130;0.3665;-0.0698;3.1938;
17.4620;-4.7248;-4.3157;2.0130;0.3665;-0.0698;3.1938;
17.5380;-4.7248;-4.3157;2.0130;0.3665;-0.0698;3.1938;
17.5390;-4.7248;-4.3157;2.0130;0.4014;-0.0174;3.0891;
17.5410;2.8482;-0.3371;0.2092;0.4014;-0.0174;3.0891;
17.5420;2.8482;-0.3371;0.2092;0.4014;-0.0174;3.0891;
17.5930;2.8482;-0.3371;0.2092;0.4014;-0.0174;3.0891;
17.6330;2.8482;-0.3371;0.2092;0.4014;-0.0174;3.0891;
17.6340;2.8482;-0.3371;0.2092;0.3141;-0.0872;0.0524;
17.6450;-0.0058;4.3176;-1.3813;0.3141;-0.0872;0.0524;
17.6570;-0.0058;4.3176;-1.3813;0.3141;-0.0872;0.0524;
17.6580;-0.0058;4.3176;-1.3813;0.3141;-0.0872;0.0524;
17.6590;-0.0058;4.3176;-1.3813;0.1745;-0.1745;0.1920;
17.6600;-4.5524;5.2461;-1.3694;0.1745;-0.1745;0.1920;
17.7200;-4.5524;5.2461;-1.3694;0.1745;-0.1745;0.1920;
17.7230;-4.5524;5.2461;-1.3694;0.1745;-0.1745;0.1920;
17.7240;-4.5524;5.2461;-1.3694;-0.0174;-0.1745;0.4014;
17.7250;-1.7229;1.6189;-1.7010;-0.0174;-0.1745;0.4014;
17.7870;-1.7229;1.6189;-1.7010;-0.0174;-0.1745;0.4014;
17.7890;-1.7229;1.6189;-1.7010;-0.0174;-0.1745;0.4014;
17.7900;-1.7229;1.6189;-1.7010;-0.1920;-0.0872;0.3665;
17.7910;10.2304;-4.8182;-4.6738;-0.1920;-0.0872;0.3665;
17.8530;10.2304;-4.8182;-4.6738;-0.1920;-0.0872;0.3665;
17.8560;10.2304;-4.8182;-4.6738;-0.1920;-0.0872;0.3665;
17.8570;10.2304;-4.8182;-4.6738;-0.2094;0.0000;-3.1066;
17.8580;0.2099;4.3535;-4.9976;-0.2094;0.0000;-3.1066;
17.9180;0.2099;4.3535;-4.9976;-0.2094;0.0000;-3.1066;
17.9210;0.2099;4.3535;-4.9976;-0.2094;0.0000;-3.1066;
17.9220;0.2099;4.3535;-4.9976;-0.3840;0.5585;-3.1764;
17.9230;-1.6882;-3.5155;0.4258;-0.3840;0.5585;-3.1764;
17.9850;-1.6882;-3.5155;0.4258;-0.3840;0.5585;-3.1764;
17.9870;-1.6882;-3.5155;0.4258;-0.3840;0.5585;-3.1764;
17.9870;-1.6882;-3.5155;0.4258;-0.5061;0.9948;-2.9146;
17.9880;-4.6731;2.6711;3.1999;-0.5061;0.9948;-2.9146;
18.0500;-4.6731;2.6711;3.1999;-0.5061;0.9948;-2.9146;
18.0530;-4.6731;2.6711;3.1999;-0.5061;0.9948;-2.9146;
18.0530;-4.6731;2.6711;3.1999;-0.6632;1.0995;0.5934;
18.0540;-2.2486;-1.7623;1.5778;-0.6632;1.0995;0.5934;
18.1160;-2.2486;-1.7623;1.5778;-0.6632;1.0995;0.5934;
18.1190;-2.2486;-1.7623;1.5778;-0.6632;1.0995;0.5934;
18.1190;-2.2486;-1.7623;1.5778;-0.5410;0.7854;0.5759;
18.1200;2.5270;0.0317;0.6899;-0.5410;0.7854;0.5759;
18.1830;2.5270;0.0317;0.6899;-0.5410;0.7854;0.5759;
18.1850;2.5270;0.0317;0.6899;-0.5410;0.7854;0.5759;
18.1870;2.5270;0.0317;0.6899;-0.1571;0.1047;0.1396;
18.1880;0.7113;1.4014;2.5349;-0.1571;0.1047;0.1396;
18.2490;0.7113;1.4014;2.5349;-0.1571;0.1047;0.1396;
18.2510;0.7113;1.4014;2.5349;-0.1571;0.1047;0.1396;
18.2520;0.7113;1.4014;2.5349;0.3490;-0.4363;-0.4538;
18.2530;-0.9525;1.3022;0.0495;0.3490;-0.4363;-0.4538;
18.3250;-0.9525;1.3022;0.0495;0.3490;-0.4363;-0.4538;
18.3260;-0.9525;1.3022;0.0495;0.4363;-0.5061;-0.5236;
18.3270;-1.5600;0.8058;1.6599;0.4363;-0.5061;-0.5236;
18.3280;-1.5600;0.8058;1.6599;0.4363;-0.5061;-0.5236;
18.3810;-1.5600;0.8058;1.6599;0.4363;-0.5061;-0.5236;
18.3830;-1.5600;0.8058;1.6599;0.4363;-0.5061;-0.5236;
18.3840;-1.5600;0.8058;1.6599;0.5410;-0.5410;-0.4014;
18.3850;3.1170;0.4105;2.8895;0.5410;-0.5410;-0.4014;
18.4470;3.1170;0.4105;2.8895;0.5410;-0.5410;-0.4014;
18.4490;3.1170;0.4105;2.8895;0.5410;-0.5410;-0.4014;
18.4500;3.1170;0.4105;2.8895;0.5236;-0.3665;-0.0524;
18.4510;3.8573;-2.0335;3.0097;0.5236;-0.3665;-0.0524;
18.5130;3.8573;-2.0335;3.0097;0.5236;-0.3665;-0.0524;
18.5150;3.8573;-2.0335;3.0097;0.5236;-0.3665;-0.0524;
18.5160;3.8573;-2.0335;3.0097;0.4538;-0.1396;1.4835;
18.5170;-0.3889;-2.4218;0.9221;0.4538;-0.1396;1.4835;
18.5790;-0.3889;-2.4218;0.9221;0.4538;-0.1396;1.4835;
18.5820;-0.3889;-2.4218;0.9221;0.4538;-0.1396;1.4835;
18.5830;-0.3889;-2.4218;0.9221;0.3840;-0.0349;3.8047;
18.5850;-4.0712;-2.8286;-0.9856;0.3840;-0.0349;3.8047;
18.6450;-4.0712;-2.8286;-0.9856;0.3840;-0.0349;3.8047;
18.6470;-4.0712;-2.8286;-0.9856;0.3840;-0.0349;3.8047;
18.6480;-4.0712;-2.8286;-0.9856;0.3141;0.1396;3.7523;
18.6500;-3.2404;-3.2220;2.6408;0.3141;0.1396;3.7523;
18.7120;-3.2404;-3.2220;2.6408;0.3141;0.1396;3.7523;
18.7130;-3.2404;-3.2220;2.6408;0.3141;0.1396;3.7523;
18.7140;-3.2404;-3.2220;2.6408;0.2967;0.0872;3.6302;
18.7150;3.9699;2.0246;1.5309;0.2967;0.0872;3.6302;
18.7770;3.9699;2.0246;1.5309;0.2967;0.0872;3.6302;
18.7930;3.9699;2.0246;1.5309;0.2967;0.0872;3.6302;
18.7940;3.9699;2.0246;1.5309;0.2967;-0.0349;0.2618;
18.7950;-0.9230;5.0658;-1.5012;0.2967;-0.0349;0.2618;
18.8420;-0.9230;5.0658;-1.5012;0.2967;-0.0349;0.2618;
18.8450;-0.9230;5.0658;-1.5012;0.2967;-0.0349;0.2618;
18.8460;-0.9230;5.0658;-1.5012;0.2094;-0.1920;0.3490;
18.8460;-5.0750;6.0544;-0.3039;0.2094;-0.1920;0.3490;
18.9080;-5.0750;6.0544;-0.3039;0.2094;-0.1920;0.3490;
18.9120;-5.0750;6.0544;-0.3039;0.2094;-0.1920;0.3490;
18.9130;-5.0750;6.0544;-0.3039;0.0174;-0.1396;0.4189;
18.9140;-2.3089;1.3632;-1.1811;0.0174;-0.1396;0.4189;
18.9760;-2.3089;1.3632;-1.1811;0.0174;-0.1396;0.4189;
18.9780;-2.3089;1.3632;-1.1811;0.0174;-0.1396;0.4189;
18.9790;-2.3089;1.3632;-1.1811;-0.3141;0.2269;0.2443;
18.9810;8.9908;-3.0765;-5.5402;-0.3141;0.2269;0.2443;
19.0410;8.9908;-3.0765;-5.5402;-0.3141;0.2269;0.2443;
19.0430;8.9908;-3.0765;-5.5402;-0.3141;0.2269;0.2443;
19.0450;8.9908;-3.0765;-5.5402;-0.5585;0.6108;-2.1467;
19.0460;0.1596;0.0411;-1.7969;-0.5585;0.6108;-2.1467;
19.1070;0.1596;0.0411;-1.7969;-0.5585;0.6108;-2.1467;
19.1100;0.1596;0.0411;-1.7969;-0.5585;0.6108;-2.1467;
19.1110;0.1596;0.0411;-1.7969;-0.6458;0.6458;-3.3160;
19.1120;-1.6608;-2.6003;0.7560;-0.6458;0.6458;-3.3160;
19.1730;-1.6608;-2.6003;0.7560;-0.6458;0.6458;-3.3160;
19.1750;-1.6608;-2.6003;0.7560;-0.6458;0.6458;-3.3160;
19.1770;-1.6608;-2.6003;0.7560;-0.7854;0.6108;-3.0891;
19.1780;-3.7683;2.5015;4.7556;-0.7854;0.6108;-3.0891;
19.2390;-3.7683;2.5015;4.7556;-0.7854;0.6108;-3.0891;
19.2410;-3.7683;2.5015;4.7556;-0.7854;0.6108;-3.0891;
19.2430;-3.7683;2.5015;4.7556;-0.8028;0.5061;-1.7976;
19.2440;-0.3174;-2.5980;2.8037;-0.8028;0.5061;-1.7976;
19.3050;-0.3174;-2.5980;2.8037;-0.8028;0.5061;-1.7976;
19.3070;-0.3174;-2.5980;2.8037;-0.8028;0.5061;-1.7976;
19.3330;-0.3174;-2.5980;2.8037;-0.8028;0.3490;0.2618;
19.3350;1.2316;3.2521;1.6984;-0.8028;0.3490;0.2618;
19.3710;1.2316;3.2521;1.6984;-0.8028;0.3490;0.2618;
19.3780;1.2316;3.2521;1.6984;-0.8028;0.3490;0.2618;
19.3790;1.2316;3.2521;1.6984;-0.4014;-0.0349;0.0000;
19.3800;-1.3166;-0.2513;2.9258;-0.4014;-0.0349;0.0000;
19.4600;-1.3166;-0.2513;2.9258;-0.4014;-0.0349;0.0000;
19.4610;-1.3166;-0.2513;2.9258;-0.4014;-0.0349;0.0000;
19.4620;-1.3166;-0.2513;2.9258;0.0000;-0.5759;-0.3840;
19.4630;0.1136;0.4849;-1.3722;0.0000;-0.5759;-0.3840;
19.5090;0.1136;0.4849;-1.3722;0.0000;-0.5759;-0.3840;
19.5100;0.1136;0.4849;-1.3722;0.2618;-0.8726;-0.4887;
19.5110;-0.4214;-0.6192;-0.2188;0.2618;-0.8726;-0.4887;
19.5120;-0.4214;-0.6192;-0.2188;0.2618;-0.8726;-0.4887;
19.5860;-0.4214;-0.6192;-0.2188;0.2618;-0.8726;-0.4887;
19.5880;-0.4214;-0.6192;-0.2188;0.3840;-0.9250;-0.3665;
19.5890;3.9089;0.8738;3.2383;0.3840;-0.9250;-0.3665;
19.5900;3.9089;0.8738;3.2383;0.3840;-0.9250;-0.3665;
19.6390;3.9089;0.8738;3.2383;0.3840;-0.9250;-0.3665;
19.6400;3.9089;0.8738;3.2383;0.3665;-0.8028;-0.1745;
19.6410;3.4740;-2.3140;1.2535;0.3665;-0.8028;-0.1745;
19.6430;3.4740;-2.3140;1.2535;0.3665;-0.8028;-0.1745;
19.7160;3.4740;-2.3140;1.2535;0.3665;-0.8028;-0.1745;
19.7170;3.4740;-2.3140;1.2535;0.3665;-0.5061;0.0000;
19.7180;-0.6527;-2.4400;0.4120;0.3665;-0.5061;0.0000;
19.7190;-0.6527;-2.4400;0.4120;0.3665;-0.5061;0.0000;
19.7730;-0.6527;-2.4400;0.4120;0.3665;-0.5061;0.0000;
19.7740;-0.6527;-2.4400;0.4120;0.3665;-0.5061;0.0000;
19.7750;-0.6527;-2.4400;0.4120;0.2094;-0.2443;2.1816;
19.7760;-2.8770;-3.0389;1.0014;0.2094;-0.2443;2.1816;
19.8370;-2.8770;-3.0389;1.0014;0.2094;-0.2443;2.1816;
19.8380;-2.8770;-3.0389;1.0014;0.2094;-0.2443;2.1816;
19.8390;-2.8770;-3.0389;1.0014;0.2269;-0.2094;3.3335;
19.8400;-3.8363;-4.5957;0.1135;0.2269;-0.2094;3.3335;
19.8990;-3.8363;-4.5957;0.1135;0.2269;-0.2094;3.3335;
19.9010;-3.8363;-4.5957;0.1135;0.2269;-0.2094;3.3335;
19.9030;-3.8363;-4.5957;0.1135;0.2269;-0.2792;3.3160;
19.9040;1.7353;3.0679;1.1233;0.2269;-0.2792;3.3160;
19.9730;1.7353;3.0679;1.1233;0.2269;-0.2792;3.3160;
19.9750;1.7353;3.0679;1.1233;0.2269;-0.2792;3.3160;
19.9760;1.7353;3.0679;1.1233;0.2094;-0.2443;2.1641;
19.9770;-0.7525;5.1301;-0.5960;0.2094;-0.2443;2.1641;
20.0310;-0.7525;5.1301;-0.5960;0.2094;-0.2443;2.1641;
20.0330;-0.7525;5.1301;-0.5960;0.2094;-0.2443;2.1641;
20.0340;-0.7525;5.1301;-0.5960;-0.0698;0.2269;0.3316;
20.0350;-4.5166;4.0724;-1.0734;-0.0698;0.2269;0.3316;
20.0990;-4.5166;4.0724;-1.0734;-0.0698;0.2269;0.3316;
20.1000;-4.5166;4.0724;-1.0734;-0.0698;0.2269;0.3316;
20.1010;-4.5166;4.0724;-1.0734;-0.4887;0.9599;0.3840;
20.1020;7.0593;-4.3023;-5.9380;-0.4887;0.9599;0.3840;
20.1630;7.0593;-4.3023;-5.9380;-0.4887;0.9599;0.3840;
20.1650;7.0593;-4.3023;-5.9380;-0.4887;0.9599;0.3840;
20.1660;7.0593;-4.3023;-5.9380;-0.5759;1.1868;-1.3439;
20.1670;3.0206;3.2908;-3.6019;-0.5759;1.1868;-1.3439;
20.2290;3.0206;3.2908;-3.6019;-0.5759;1.1868;-1.3439;
20.2310;3.0206;3.2908;-3.6019;-0.5759;1.1868;-1.3439;
20.2330;3.0206;3.2908;-3.6019;-0.5061;1.0297;-2.6179;
20.2350;0.5610;-5.2593;4.3800;-0.5061;1.0297;-2.6179;
20.2950;0.5610;-5.2593;4.3800;-0.5061;1.0297;-2.6179;
20.2970;0.5610;-5.2593;4.3800;-0.5061;1.0297;-2.6179;
20.2990;0.5610;-5.2593;4.3800;-0.4712;0.8028;-2.5656;
20.3000;-5.3068;1.1930;0.1544;-0.4712;0.8028;-2.5656;
20.3610;-5.3068;1.1930;0.1544;-0.4712;0.8028;-2.5656;
20.3630;-5.3068;1.1930;0.1544;-0.4712;0.8028;-2.5656;
20.3640;-5.3068;1.1930;0.1544;-0.4363;0.7854;-1.5882;
20.3660;-3.2384;1.1122;3.9580;-0.4363;0.7854;-1.5882;
20.4270;-3.2384;1.1122;3.9580;-0.4363;0.7854;-1.5882;
20.4290;-3.2384;1.1122;3.9580;-0.4363;0.7854;-1.5882;
20.4310;-3.2384;1.1122;3.9580;-0.4887;0.9250;0.5934;
20.4320;3.1206;-4.2253;-5.2311;-0.4887;0.9250;0.5934;
20.4950;3.1206;-4.2253;-5.2311;-0.4887;0.9250;0.5934;
20.4970;3.1206;-4.2253;-5.2311;-0.3665;0.6806;0.4363;
20.4980;1.2486;3.2265;2.0864;-0.3665;0.6806;0.4363;
20.4990;1.2486;3.2265;2.0864;-0.3665;0.6806;0.4363;
20.5600;1.2486;3.2265;2.0864;-0.3665;0.6806;0.4363;
20.5610;1.2486;3.2265;2.0864;-0.3665;0.6806;0.4363;
20.5620;1.2486;3.2265;2.0864;-0.0349;-0.2618;-0.2269;
20.5630;0.7487;0.7847;-2.7469;-0.0349;-0.2618;-0.2269;
20.6250;0.7487;0.7847;-2.7469;-0.0349;-0.2618;-0.2269;
20.6280;0.7487;0.7847;-2.7469;-0.0349;-0.2618;-0.2269;
20.6300;0.7487;0.7847;-2.7469;0.0698;-0.6806;-0.4887;
20.6320;-0.5744;1.8547;1.7867;0.0698;-0.6806;-0.4887;
20.6910;-0.5744;1.8547;1.7867;0.0698;-0.6806;-0.4887;
20.6930;-0.5744;1.8547;1.7867;0.0698;-0.6806;-0.4887;
20.6950;-0.5744;1.8547;1.7867;0.2269;-0.9773;-0.4887;
20.6960;1.2289;-0.6135;0.3486;0.2269;-0.9773;-0.4887;
20.7570;1.2289;-0.6135;0.3486;0.2269;-0.9773;-0.4887;
20.7590;1.2289;-0.6135;0.3486;0.2269;-0.9773;-0.4887;
20.7600;1.2289;-0.6135;0.3486;0.2967;-0.9250;-0.2269;
20.7610;3.4243;-0.7964;2.2855;0.2967;-0.9250;-0.2269;
20.8230;3.4243;-0.7964;2.2855;0.2967;-0.9250;-0.2269;
20.8250;3.4243;-0.7964;2.2855;0.2967;-0.9250;-0.2269;
20.8260;3.4243;-0.7964;2.2855;0.2967;-0.5934;0.0349;
20.8270;0.7006;-2.9565;2.7148;0.2967;-0.5934;0.0349;
20.8890;0.7006;-2.9565;2.7148;0.2967;-0.5934;0.0349;
20.8910;0.7006;-2.9565;2.7148;0.2967;-0.5934;0.0349;
20.8920;0.7006;-2.9565;2.7148;0.3141;-0.3141;3.6127;
20.8930;-1.8138;-2.6112;-1.4321;0.3141;-0.3141;3.6127;
20.9550;-1.8138;-2.6112;-1.4321;0.3141;-0.3141;3.6127;
20.9570;-1.8138;-2.6112;-1.4321;0.3141;-0.3141;3.6127;
20.9580;-1.8138;-2.6112;-1.4321;0.4887;-0.3490;3.5080;
20.9590;-2.7745;-3.2928;1.4438;0.4887;-0.3490;3.5080;
21.0200;-2.7745;-3.2928;1.4438;0.4887;-0.3490;3.5080;
21.0230;-2.7745;-3.2928;1.4438;0.4887;-0.3490;3.5080;
21.0240;-2.7745;-3.2928;1.4438;0.5410;-0.4538;3.4382;
21.0240;4.1782;0.3417;0.4807;0.5410;-0.4538;3.4382;
21.0860;4.1782;0.3417;0.4807;0.5410;-0.4538;3.4382;
21.0890;4.1782;0.3417;0.4807;0.5410;-0.4538;3.4382;
21.0900;4.1782;0.3417;0.4807;0.4887;-0.4887;0.1745;
21.0900;-0.1628;3.9202;-0.1839;0.4887;-0.4887;0.1745;
21.1520;-0.1628;3.9202;-0.1839;0.4887;-0.4887;0.1745;
21.1550;-0.1628;3.9202;-0.1839;0.4887;-0.4887;0.1745;
21.1560;-0.1628;3.9202;-0.1839;0.1745;-0.2269;0.2618;
21.1560;-4.2352;5.4205;-1.0189;0.1745;-0.2269;0.2618;
21.2180;-4.2352;5.4205;-1.0189;0.1745;-0.2269;0.2618;
21.2210;-4.2352;5.4205;-1.0189;0.1745;-0.2269;0.2618;
21.2220;-4.2352;5.4205;-1.0189;-0.2443;0.4014;0.3665;
21.2220;-4.3133;3.4119;-0.5480;-0.2443;0.4014;0.3665;
21.2850;-4.3133;3.4119;-0.5480;-0.2443;0.4014;0.3665;
21.2870;-4.3133;3.4119;-0.5480;-0.2443;0.4014;0.3665;
21.2880;-4.3133;3.4119;-0.5480;-0.5061;0.9075;0.2094;
21.2880;11.4613;-6.6929;-6.4127;-0.5061;0.9075;0.2094;
21.3500;11.4613;-6.6929;-6.4127;-0.5061;0.9075;0.2094;
21.3520;11.4613;-6.6929;-6.4127;-0.5061;0.9075;0.2094;
21.3530;11.4613;-6.6929;-6.4127;-0.5934;1.0646;-0.9773;
21.3540;1.7548;5.2697;-4.9505;-0.5934;1.0646;-0.9773;
21.4170;1.7548;5.2697;-4.9505;-0.5934;1.0646;-0.9773;
21.4190;1.7548;5.2697;-4.9505;-0.5934;1.0646;-0.9773;
21.4190;1.7548;5.2697;-4.9505;-0.4538;1.1519;-3.3160;
21.4200;-5.5715;-0.3146;0.1769;-0.4538;1.1519;-3.3160;
21.4820;-5.5715;-0.3146;0.1769;-0.4538;1.1519;-3.3160;
21.4840;-5.5715;-0.3146;0.1769;-0.4538;1.1519;-3.3160;
21.4850;-5.5715;-0.3146;0.1769;-0.3141;1.5009;-3.0019;
21.4860;-2.7334;0.7334;3.7566;-0.3141;1.5009;-3.0019;
21.5480;-2.7334;0.7334;3.7566;-0.3141;1.5009;-3.0019;
21.5530;-2.7334;0.7334;3.7566;-0.3141;1.5009;-3.0019;
21.5530;-2.7334;0.7334;3.7566;-0.1745;1.7278;-1.6929;
21.5540;-0.2026;-2.4647;2.0233;-0.1745;1.7278;-1.6929;
21.6140;-0.2026;-2.4647;2.0233;-0.1745;1.7278;-1.6929;
21.6170;-0.2026;-2.4647;2.0233;-0.1745;1.7278;-1.6929;
21.6170;-0.2026;-2.4647;2.0233;-0.1571;1.6405;0.4887;
21.6180;1.5992;2.1262;1.1968;-0.1571;1.6405;0.4887;
21.6800;1.5992;2.1262;1.1968;-0.1571;1.6405;0.4887;
21.6830;1.5992;2.1262;1.1968;-0.1571;1.6405;0.4887;
21.6830;1.5992;2.1262;1.1968;0.0872;0.4014;-0.0174;
21.6840;-0.7782;-0.0101;2.1574;0.0872;0.4014;-0.0174;
21.7500;-0.7782;-0.0101;2.1574;0.0872;0.4014;-0.0174;
21.7500;-0.7782;-0.0101;2.1574;0.2443;-0.4014;-0.4538;
21.7510;-0.4738;1.6465;0.7617;0.2443;-0.4014;-0.4538;
21.7520;-0.4738;1.6465;0.7617;0.2443;-0.4014;-0.4538;
21.8120;-0.4738;1.6465;0.7617;0.2443;-0.4014;-0.4538;
21.8140;-0.4738;1.6465;0.7617;0.2443;-0.4014;-0.4538;
21.8150;-0.4738;1.6465;0.7617;0.3840;-0.6458;-0.4538;
21.8160;0.1333;-1.6246;-1.0532;0.3840;-0.6458;-0.4538;
21.8800;0.1333;-1.6246;-1.0532;0.3840;-0.6458;-0.4538;
21.8810;0.1333;-1.6246;-1.0532;0.3840;-0.6458;-0.4538;
21.8820;0.1333;-1.6246;-1.0532;0.4712;-0.5410;-0.1571;
21.8820;2.4922;-0.2233;2.2869;0.4712;-0.5410;-0.1571;
21.9450;2.4922;-0.2233;2.2869;0.4712;-0.5410;-0.1571;
21.9470;2.4922;-0.2233;2.2869;0.4712;-0.5410;-0.1571;
21.9480;2.4922;-0.2233;2.2869;0.5759;-0.0174;0.1396;
21.9490;2.9510;-2.0973;2.1647;0.5759;-0.0174;0.1396;
22.0130;2.9510;-2.0973;2.1647;0.5759;-0.0174;0.1396;
22.0140;2.9510;-2.0973;2.1647;0.5759;-0.0174;0.1396;
22.0150;2.9510;-2.0973;2.1647;0.7330;0.1745;2.6179;
22.0160;-1.7878;-4.3192;0.4807;0.7330;0.1745;2.6179;
22.0790;-1.7878;-4.3192;0.4807;0.7330;0.1745;2.6179;
22.0810;-1.7878;-4.3192;0.4807;0.7330;0.1745;2.6179;
22.0840;-1.7878;-4.3192;0.4807;0.8028;0.1222;3.7174;
22.0870;-4.0916;-3.4358;-0.0816;0.8028;0.1222;3.7174;
22.1470;-4.0916;-3.4358;-0.0816;0.8028;0.1222;3.7174;
22.1480;-4.0916;-3.4358;-0.0816;0.7854;0.0174;3.5953;
22.1490;-0.6588;-2.4970;2.8933;0.7854;0.0174;3.5953;
22.1560;-0.6588;-2.4970;2.8933;0.7854;0.0174;3.5953;
22.2090;-0.6588;-2.4970;2.8933;0.7854;0.0174;3.5953;
22.2110;-0.6588;-2.4970;2.8933;0.7854;0.0174;3.5953;
22.2120;-0.6588;-2.4970;2.8933;0.5759;-0.2618;2.3561;
22.2140;-0.6842;3.8401;0.4625;0.5759;-0.2618;2.3561;
22.2760;-0.6842;3.8401;0.4625;0.5759;-0.2618;2.3561;
22.2770;-0.6842;3.8401;0.4625;0.5759;-0.2618;2.3561;
22.2800;-0.6842;3.8401;0.4625;0.3316;-0.2967;0.2269;
22.2820;-4.2253;5.2673;-1.5372;0.3316;-0.2967;0.2269;
22.3410;-4.2253;5.2673;-1.5372;0.3316;-0.2967;0.2269;
22.3430;-4.2253;5.2673;-1.5372;0.3316;-0.2967;0.2269;
22.3440;-4.2253;5.2673;-1.5372;0.1745;-0.1571;0.4014;
22.3450;-4.3908;3.3460;-1.2105;0.1745;-0.1571;0.4014;
22.4070;-4.3908;3.3460;-1.2105;0.1745;-0.1571;0.4014;
22.4090;-4.3908;3.3460;-1.2105;0.1745;-0.1571;0.4014;
22.4100;-4.3908;3.3460;-1.2105;0.0000;0.0000;0.4712;
22.4110;7.5148;-4.2861;-6.6700;0.0000;0.0000;0.4712;
22.4730;7.5148;-4.2861;-6.6700;0.0000;0.0000;0.4712;
22.4760;7.5148;-4.2861;-6.6700;0.0000;0.0000;0.4712;
22.4770;7.5148;-4.2861;-6.6700;-0.1571;0.1047;0.3665;
22.4780;1.5123;5.6522;-1.2810;-0.1571;0.1047;0.3665;
22.5390;1.5123;5.6522;-1.2810;-0.1571;0.1047;0.3665;
22.5410;1.5123;5.6522;-1.2810;-0.1571;0.1047;0.3665;
22.5420;1.5123;5.6522;-1.2810;-0.1396;0.1396;-2.8448;
22.5430;1.2178;-9.2585;-1.5507;-0.1396;0.1396;-2.8448;
22.6050;1.2178;-9.2585;-1.5507;-0.1396;0.1396;-2.8448;
22.6070;1.2178;-9.2585;-1.5507;-0.1396;0.1396;-2.8448;
22.6080;1.2178;-9.2585;-1.5507;-0.1571;0.7505;-2.8099;
22.6090;-7.1509;5.0775;2.3989;-0.1571;0.7505;-2.8099;
22.6710;-7.1509;5.0775;2.3989;-0.1571;0.7505;-2.8099;
22.6730;-7.1509;5.0775;2.3989;-0.1571;0.7505;-2.8099;
22.6740;-7.1509;5.0775;2.3989;-0.2443;1.2217;-2.5656;
22.6750;-0.3800;-4.0452;2.2806;-0.2443;1.2217;-2.5656;
22.7370;-0.3800;-4.0452;2.2806;-0.2443;1.2217;-2.5656;
22.7390;-0.3800;-4.0452;2.2806;-0.2443;1.2217;-2.5656;
22.7400;-0.3800;-4.0452;2.2806;-0.2967;1.2391;0.3316;
22.7410;1.1251;3.1712;1.4323;-0.2967;1.2391;0.3316;
22.8030;1.1251;3.1712;1.4323;-0.2967;1.2391;0.3316;
22.8050;1.1251;3.1712;1.4323;-0.2967;1.2391;0.3316;
22.8070;1.1251;3.1712;1.4323;-0.1396;0.4363;0.2094;
22.8080;-0.4910;0.0950;1.8861;-0.1396;0.4363;0.2094;
22.9710;-0.4910;0.0950;1.8861;-0.1396;0.4363;0.2094;
22.9720;-0.4910;0.0950;1.8861;0.5061;-0.5759;-0.3316;
22.9720;-0.4910;0.0950;1.8861;0.5061;-0.5759;-0.3316;
22.9730;-0.4910;0.0950;1.8861;0.5061;-0.5759;-0.3316;
22.9740;3.6631;0.2713;0.8775;0.5061;-0.5759;-0.3316;
22.9750;3.6631;0.2713;0.8775;0.5061;-0.5759;-0.3316;
22.9760;3.6631;0.2713;0.8775;0.5061;-0.5759;-0.3316;
22.9770;3.6631;0.2713;0.8775;0.5061;-0.5759;-0.3316;
22.9780;3.6631;0.2713;0.8775;0.5061;-0.5759;-0.3316;
23.0010;3.6631;0.2713;0.8775;0.5061;-0.5759;-0.3316;
23.0070;3.6631;0.2713;0.8775;0.5061;-0.5759;-0.3316;
23.0080;3.6631;0.2713;0.8775;0.5061;-0.5759;-0.2618;
23.0090;3.3565;0.4064;2.3364;0.5061;-0.5759;-0.2618;
23.0660;3.3565;0.4064;2.3364;0.5061;-0.5759;-0.2618;
23.0690;3.3565;0.4064;2.3364;0.5061;-0.5759;-0.2618;
23.0700;3.3565;0.4064;2.3364;0.4363;-0.4189;1.1519;
23.0710;1.0384;-2.7133;2.4817;0.4363;-0.4189;1.1519;
23.1320;1.0384;-2.7133;2.4817;0.4363;-0.4189;1.1519;
23.1350;1.0384;-2.7133;2.4817;0.4363;-0.4189;1.1519;
23.1360;1.0384;-2.7133;2.4817;0.2269;-0.1571;3.5255;
23.1360;-0.9192;-4.2267;-0.6734;0.2269;-0.1571;3.5255;
23.1980;-0.9192;-4.2267;-0.6734;0.2269;-0.1571;3.5255;
23.2010;-0.9192;-4.2267;-0.6734;0.2269;-0.1571;3.5255;
23.2020;-0.9192;-4.2267;-0.6734;0.1571;0.0000;3.4033;
23.2020;-3.1889;-4.4284;-0.6330;0.1571;0.0000;3.4033;
23.2640;-3.1889;-4.4284;-0.6330;0.1571;0.0000;3.4033;
23.2660;-3.1889;-4.4284;-0.6330;0.1571;0.0000;3.4033;
23.2670;-3.1889;-4.4284;-0.6330;0.1222;0.0000;2.1118;
23.2680;2.0897;1.3657;-0.1164;0.1222;0.0000;2.1118;
23.3300;2.0897;1.3657;-0.1164;0.1222;0.0000;2.1118;
23.3320;2.0897;1.3657;-0.1164;0.1222;0.0000;2.1118;
23.3330;2.0897;1.3657;-0.1164;0.1745;-0.1571;0.0174;
23.3340;-0.4302;4.6435;-0.5929;0.1745;-0.1571;0.0174;
23.3960;-0.4302;4.6435;-0.5929;0.1745;-0.1571;0.0174;
23.3980;-0.4302;4.6435;-0.5929;0.1745;-0.1571;0.0174;
23.3990;-0.4302;4.6435;-0.5929;0.1047;-0.2792;0.2443;
23.4000;-3.4239;4.5441;-0.6877;0.1047;-0.2792;0.2443;
23.4630;-3.4239;4.5441;-0.6877;0.1047;-0.2792;0.2443;
23.4650;-3.4239;4.5441;-0.6877;0.1047;-0.2792;0.2443;
23.4650;-3.4239;4.5441;-0.6877;-0.0349;-0.1920;0.3840;
23.4660;-2.7125;3.0056;-1.2301;-0.0349;-0.1920;0.3840;
23.5280;-2.7125;3.0056;-1.2301;-0.0349;-0.1920;0.3840;
23.5310;-2.7125;3.0056;-1.2301;-0.0349;-0.1920;0.3840;
23.5310;-2.7125;3.0056;-1.2301;-0.1571;-0.0174;-0.8377;
23.5320;9.5132;-4.7457;-5.3179;-0.1571;-0.0174;-0.8377;
23.5940;9.5132;-4.7457;-5.3179;-0.1571;-0.0174;-0.8377;
23.5970;9.5132;-4.7457;-5.3179;-0.1571;-0.0174;-0.8377;
23.5970;9.5132;-4.7457;-5.3179;-0.2967;0.0174;-3.2462;
23.5980;-0.9230;5.3356;-3.2854;-0.2967;0.0174;-3.2462;
23.6600;-0.9230;5.3356;-3.2854;-0.2967;0.0174;-3.2462;
23.6630;-0.9230;5.3356;-3.2854;-0.2967;0.0174;-3.2462;
23.6630;-0.9230;5.3356;-3.2854;-0.5236;0.1047;-3.2811;
23.6650;1.3318;-9.1792;-1.2026;-0.5236;0.1047;-3.2811;
23.7290;1.3318;-9.1792;-1.2026;-0.5236;0.1047;-3.2811;
23.7300;1.3318;-9.1792;-1.2026;-0.5236;0.1047;-3.2811;
23.7300;1.3318;-9.1792;-1.2026;-0.7854;0.4538;-1.8849;
23.7310;-3.4888;3.7116;3.9360;-0.7854;0.4538;-1.8849;
23.7930;-3.4888;3.7116;3.9360;-0.7854;0.4538;-1.8849;
23.7950;-3.4888;3.7116;3.9360;-0.7854;0.4538;-1.8849;
23.7950;-3.4888;3.7116;3.9360;-0.8552;0.6108;0.5236;
23.7960;-0.4957;-2.1520;3.1057;-0.8552;0.6108;0.5236;
23.8590;-0.4957;-2.1520;3.1057;-0.8552;0.6108;0.5236;
23.8610;-0.4957;-2.1520;3.1057;-0.8552;0.6108;0.5236;
23.8610;-0.4957;-2.1520;3.1057;-0.6458;0.4887;0.4712;
23.8620;0.7135;1.5668;-3.2945;-0.6458;0.4887;0.4712;
23.9310;0.7135;1.5668;-3.2945;-0.6458;0.4887;0.4712;
23.9350;0.7135;1.5668;-3.2945;-0.6458;0.4887;0.4712;
23.9360;0.7135;1.5668;-3.2945;-0.2618;-0.0524;0.0698;
23.9380;-0.4656;1.3686;2.4786;-0.2618;-0.0524;0.0698;
23.9910;-0.4656;1.3686;2.4786;-0.2618;-0.0524;0.0698;
23.9930;-0.4656;1.3686;2.4786;-0.2618;-0.0524;0.0698;
23.9940;-0.4656;1.3686;2.4786;0.2094;-0.6283;-0.4189;
23.9950;1.3669;2.3426;0.7243;0.2094;-0.6283;-0.4189;
24.0810;1.3669;2.3426;0.7243;0.2094;-0.6283;-0.4189;
24.0840;1.3669;2.3426;0.7243;0.3316;-0.6806;-0.4189;
24.0850;-1.0304;0.9924;2.7062;0.3316;-0.6806;-0.4189;
24.0860;-1.0304;0.9924;2.7062;0.3316;-0.6806;-0.4189;
24.1230;-1.0304;0.9924;2.7062;0.3316;-0.6806;-0.4189;
24.1250;-1.0304;0.9924;2.7062;0.3316;-0.6806;-0.4189;
24.1260;-1.0304;0.9924;2.7062;0.3490;-0.5585;-0.2792;
24.1270;0.6884;-1.6990;1.4993;0.3490;-0.5585;-0.2792;
24.1970;0.6884;-1.6990;1.4993;0.3490;-0.5585;-0.2792;
24.1980;0.6884;-1.6990;1.4993;0.3490;-0.5585;-0.2792;
24.1990;0.6884;-1.6990;1.4993;0.3490;-0.3490;-0.0174;
24.2000;3.9293;-1.3522;1.8561;0.3490;-0.3490;-0.0174;
24.2550;3.9293;-1.3522;1.8561;0.3490;-0.3490;-0.0174;
24.2570;3.9293;-1.3522;1.8561;0.3490;-0.3490;-0.0174;
24.2580;3.9293;-1.3522;1.8561;0.3840;-0.1047;0.1745;
24.2590;-0.1814;-1.7926;-0.9709;0.3840;-0.1047;0.1745;
24.3260;-0.1814;-1.7926;-0.9709;0.3840;-0.1047;0.1745;
24.3270;-0.1814;-1.7926;-0.9709;0.3840;-0.1047;0.1745;
24.3290;-0.1814;-1.7926;-0.9709;0.4014;-0.0524;1.4835;
24.3300;-3.3838;-4.2182;0.4868;0.4014;-0.0524;1.4835;
24.3870;-3.3838;-4.2182;0.4868;0.4014;-0.0524;1.4835;
24.3900;-3.3838;-4.2182;0.4868;0.4014;-0.0524;1.4835;
24.3910;-3.3838;-4.2182;0.4868;0.3141;0.0000;3.7349;
24.3920;1.7764;-3.3291;1.1552;0.3141;0.0000;3.7349;
24.4550;1.7764;-3.3291;1.1552;0.3141;0.0000;3.7349;
24.4560;1.7764;-3.3291;1.1552;0.3141;0.0000;3.7349;
24.4570;1.7764;-3.3291;1.1552;0.2618;-0.0174;3.7174;
24.4580;1.3546;2.7744;1.0216;0.2618;-0.0174;3.7174;
24.5190;1.3546;2.7744;1.0216;0.2618;-0.0174;3.7174;
24.5210;1.3546;2.7744;1.0216;0.2618;-0.0174;3.7174;
24.5220;1.3546;2.7744;1.0216;0.1222;-0.0524;3.7174;
24.5230;-2.5255;4.1782;-0.9112;0.1222;-0.0524;3.7174;
24.5850;-2.5255;4.1782;-0.9112;0.1222;-0.0524;3.7174;
24.5870;-2.5255;4.1782;-0.9112;0.1222;-0.0524;3.7174;
24.5890;-2.5255;4.1782;-0.9112;0.0698;-0.0174;0.2967;
24.5900;-5.0253;4.4530;-1.2667;0.0698;-0.0174;0.2967;
24.6510;-5.0253;4.4530;-1.2667;0.0698;-0.0174;0.2967;
24.6540;-5.0253;4.4530;-1.2667;0.0698;-0.0174;0.2967;
24.6550;-5.0253;4.4530;-1.2667;-0.1396;0.1920;0.2967;
24.6560;3.6894;-1.1710;-6.9938;-0.1396;0.1920;0.2967;
24.7170;3.6894;-1.1710;-6.9938;-0.1396;0.1920;0.2967;
24.7230;3.6894;-1.1710;-6.9938;-0.1396;0.1920;0.2967;
24.7250;3.6894;-1.1710;-6.9938;-0.3665;0.4538;-0.9075;
24.7270;4.0979;2.6581;-4.1057;-0.3665;0.4538;-0.9075;
24.7830;4.0979;2.6581;-4.1057;-0.3665;0.4538;-0.9075;
24.7850;4.0979;2.6581;-4.1057;-0.3665;0.4538;-0.9075;
24.7860;4.0979;2.6581;-4.1057;-0.4887;0.4712;-3.1066;
24.7880;-2.2988;-1.3141;1.2167;-0.4887;0.4712;-3.1066;
24.8500;-2.2988;-1.3141;1.2167;-0.4887;0.4712;-3.1066;
24.8520;-2.2988;-1.3141;1.2167;-0.4887;0.4712;-3.1066;
24.8530;-2.2988;-1.3141;1.2167;-0.7156;0.4712;-3.0368;
24.8540;-4.1070;2.0265;2.1573;-0.7156;0.4712;-3.0368;
24.9150;-4.1070;2.0265;2.1573;-0.7156;0.4712;-3.0368;
24.9170;-4.1070;2.0265;2.1573;-0.7156;0.4712;-3.0368;
24.9180;-4.1070;2.0265;2.1573;-0.8028;0.4363;-1.7278;
24.9190;-1.3326;1.3092;3.9104;-0.8028;0.4363;-1.7278;
24.9810;-1.3326;1.3092;3.9104;-0.8028;0.4363;-1.7278;
24.9830;-1.3326;1.3092;3.9104;-0.8028;0.4363;-1.7278;
24.9840;-1.3326;1.3092;3.9104;-0.8377;0.3490;0.2792;
24.9850;-1.5309;1.0840;-2.6596;-0.8377;0.3490;0.2792;
25.0470;-1.5309;1.0840;-2.6596;-0.8377;0.3490;0.2792;
25.0490;-1.5309;1.0840;-2.6596;-0.8377;0.3490;0.2792;
25.0500;-1.5309;1.0840;-2.6596;-0.5934;-0.1571;0.0872;
25.0500;0.8716;1.6603;2.8733;-0.5934;-0.1571;0.0872;
25.1120;0.8716;1.6603;2.8733;-0.5934;-0.1571;0.0872;
25.1150;0.8716;1.6603;2.8733;-0.5934;-0.1571;0.0872;
25.1160;0.8716;1.6603;2.8733;-0.2792;-0.9075;-0.3316;
25.1160;1.5541;1.3274;-1.8372;-0.2792;-0.9075;-0.3316;
25.1780;1.5541;1.3274;-1.8372;-0.2792;-0.9075;-0.3316;
25.1810;1.5541;1.3274;-1.8372;-0.2792;-0.9075;-0.3316;
25.1820;1.5541;1.3274;-1.8372;-0.0174;-1.5533;-0.5585;
25.1820;-1.4042;0.5434;2.3719;-0.0174;-1.5533;-0.5585;
25.2450;-1.4042;0.5434;2.3719;-0.0174;-1.5533;-0.5585;
25.2480;-1.4042;0.5434;2.3719;-0.0174;-1.5533;-0.5585;
25.2490;-1.4042;0.5434;2.3719;0.0698;-1.5184;-0.4014;
25.2490;0.7437;-1.2565;0.4403;0.0698;-1.5184;-0.4014;
25.3100;0.7437;-1.2565;0.4403;0.0698;-1.5184;-0.4014;
25.3120;0.7437;-1.2565;0.4403;0.0698;-1.5184;-0.4014;
25.3130;0.7437;-1.2565;0.4403;0.1745;-1.0821;-0.0698;
25.3140;4.6623;-0.5708;2.8010;0.1745;-1.0821;-0.0698;
25.3770;4.6623;-0.5708;2.8010;0.1745;-1.0821;-0.0698;
25.3790;4.6623;-0.5708;2.8010;0.1745;-1.0821;-0.0698;
25.3790;4.6623;-0.5708;2.8010;0.3840;-0.4363;1.3962;
25.3800;-1.0044;-3.0621;-0.9336;0.3840;-0.4363;1.3962;
25.4420;-1.0044;-3.0621;-0.9336;0.3840;-0.4363;1.3962;
25.4450;-1.0044;-3.0621;-0.9336;0.3840;-0.4363;1.3962;
25.4450;-1.0044;-3.0621;-0.9336;0.6458;-0.2443;3.7349;
25.4460;-3.4271;-4.4679;0.3135;0.6458;-0.2443;3.7349;
25.5080;-3.4271;-4.4679;0.3135;0.6458;-0.2443;3.7349;
25.5100;-3.4271;-4.4679;0.3135;0.6458;-0.2443;3.7349;
25.5110;-3.4271;-4.4679;0.3135;0.7679;-0.3141;3.6302;
25.5120;-0.2622;-2.4361;1.5981;0.7679;-0.3141;3.6302;
25.5750;-0.2622;-2.4361;1.5981;0.7679;-0.3141;3.6302;
25.5770;-0.2622;-2.4361;1.5981;0.7679;-0.3141;3.6302;
25.5770;-0.2622;-2.4361;1.5981;0.7854;-0.5236;3.5953;
25.5780;2.0669;2.1961;1.0012;0.7854;-0.5236;3.5953;
25.6400;2.0669;2.1961;1.0012;0.7854;-0.5236;3.5953;
25.6430;2.0669;2.1961;1.0012;0.7854;-0.5236;3.5953;
25.6430;2.0669;2.1961;1.0012;0.4538;-0.6806;0.2792;
25.6440;-2.9085;5.7063;-0.9778;0.4538;-0.6806;0.2792;
25.7060;-2.9085;5.7063;-0.9778;0.4538;-0.6806;0.2792;
25.7080;-2.9085;5.7063;-0.9778;0.4538;-0.6806;0.2792;
25.7090;-2.9085;5.7063;-0.9778;0.2443;-0.5759;0.4014;
25.7100;-5.2400;4.5131;-0.7574;0.2443;-0.5759;0.4014;
25.7720;-5.2400;4.5131;-0.7574;0.2443;-0.5759;0.4014;
25.7750;-5.2400;4.5131;-0.7574;0.2443;-0.5759;0.4014;
25.7750;-5.2400;4.5131;-0.7574;0.0000;-0.2618;0.3665;
25.7760;0.1312;-0.5008;-2.6798;0.0000;-0.2618;0.3665;
25.8410;0.1312;-0.5008;-2.6798;0.0000;-0.2618;0.3665;
25.8420;0.1312;-0.5008;-2.6798;-0.1571;0.0349;-0.8901;
25.8420;7.8174;-2.9364;-4.1567;-0.1571;0.0349;-0.8901;
25.8490;7.8174;-2.9364;-4.1567;-0.1571;0.0349;-0.8901;
25.9070;7.8174;-2.9364;-4.1567;-0.1571;0.0349;-0.8901;
25.9080;7.8174;-2.9364;-4.1567;-0.2792;0.3141;-3.3509;
25.9090;-0.1453;3.5714;-0.1754;-0.2792;0.3141;-3.3509;
25.9100;-0.1453;3.5714;-0.1754;-0.2792;0.3141;-3.3509;
25.9820;-0.1453;3.5714;-0.1754;-0.2792;0.3141;-3.3509;
25.9830;-0.1453;3.5714;-0.1754;-0.2792;0.3141;-3.3509;
25.9850;-0.1453;3.5714;-0.1754;-0.4538;0.6283;-3.2811;
25.9860;-1.6027;-6.6579;-1.0158;-0.4538;0.6283;-3.2811;
26.0360;-1.6027;-6.6579;-1.0158;-0.4538;0.6283;-3.2811;
26.0390;-1.6027;-6.6579;-1.0158;-0.4538;0.6283;-3.2811;
26.0400;-1.6027;-6.6579;-1.0158;-0.5759;0.9075;-1.9023;
26.0410;-5.5046;4.8566;5.3814;-0.5759;0.9075;-1.9023;
26.1100;-5.5046;4.8566;5.3814;-0.5759;0.9075;-1.9023;
26.1110;-5.5046;4.8566;5.3814;-0.6458;0.9948;0.5759;
26.1120;-1.5896;-2.6942;0.2457;-0.6458;0.9948;0.5759;
26.1130;-1.5896;-2.6942;0.2457;-0.6458;0.9948;0.5759;
26.1690;-1.5896;-2.6942;0.2457;-0.6458;0.9948;0.5759;
26.1710;-1.5896;-2.6942;0.2457;-0.6458;0.9948;0.5759;
26.1720;-1.5896;-2.6942;0.2457;-0.3141;0.4887;0.4189;
26.1730;3.1814;2.9240;0.8841;-0.3141;0.4887;0.4189;
26.2550;3.1814;2.9240;0.8841;-0.3141;0.4887;0.4189;
26.2560;3.1814;2.9240;0.8841;-0.0524;0.1047;0.0872;
26.2570;-1.3529;1.0802;2.4977;-0.0524;0.1047;0.0872;
26.2580;-1.3529;1.0802;2.4977;-0.0524;0.1047;0.0872;
26.3010;-1.3529;1.0802;2.4977;-0.0524;0.1047;0.0872;
26.3030;-1.3529;1.0802;2.4977;-0.0524;0.1047;0.0872;
26.3040;-1.3529;1.0802;2.4977;0.2443;-0.3316;-0.3141;
26.3050;-1.2913;-0.1263;1.3822;0.2443;-0.3316;-0.3141;
26.3870;-1.2913;-0.1263;1.3822;0.2443;-0.3316;-0.3141;
26.3880;-1.2913;-0.1263;1.3822;0.2443;-0.3316;-0.3141;
26.3890;-1.2913;-0.1263;1.3822;0.4712;-0.4887;-0.4014;
26.3910;2.1806;-0.9517;-0.3552;0.4712;-0.4887;-0.4014;
26.4330;2.1806;-0.9517;-0.3552;0.4712;-0.4887;-0.4014;
26.4350;2.1806;-0.9517;-0.3552;0.4712;-0.4887;-0.4014;
26.4360;2.1806;-0.9517;-0.3552;0.5410;-0.3840;-0.2269;
26.4370;3.1719;0.8837;2.9041;0.5410;-0.3840;-0.2269;
26.4990;3.1719;0.8837;2.9041;0.5410;-0.3840;-0.2269;
26.5010;3.1719;0.8837;2.9041;0.5410;-0.3840;-0.2269;
26.5020;3.1719;0.8837;2.9041;0.5410;-0.1571;0.0349;
26.5030;1.1692;-2.9802;3.2118;0.5410;-0.1571;0.0349;
26.5650;1.1692;-2.9802;3.2118;0.5410;-0.1571;0.0349;
26.5670;1.1692;-2.9802;3.2118;0.5410;-0.1571;0.0349;
26.5680;1.1692;-2.9802;3.2118;0.4363;-0.0174;3.8047;
26.5680;-3.6988;-5.9948;-0.9235;0.4363;-0.0174;3.8047;
26.6310;-3.6988;-5.9948;-0.9235;0.4363;-0.0174;3.8047;
26.6330;-3.6988;-5.9948;-0.9235;0.4363;-0.0174;3.8047;
26.6340;-3.6988;-5.9948;-0.9235;0.4363;-0.0349;3.7523;
26.6350;-3.5546;-3.3196;1.0222;0.4363;-0.0349;3.7523;
26.6970;-3.5546;-3.3196;1.0222;0.4363;-0.0349;3.7523;
26.6990;-3.5546;-3.3196;1.0222;0.4363;-0.0349;3.7523;
26.7000;-3.5546;-3.3196;1.0222;0.4363;-0.1745;3.7000;
26.7000;2.8522;-0.6517;0.1676;0.4363;-0.1745;3.7000;
26.7630;2.8522;-0.6517;0.1676;0.4363;-0.1745;3.7000;
26.7650;2.8522;-0.6517;0.1676;0.4363;-0.1745;3.7000;
26.7660;2.8522;-0.6517;0.1676;0.4363;-0.4189;1.3264;
26.7660;0.7077;4.1938;0.7890;0.4363;-0.4189;1.3264;
26.8280;0.7077;4.1938;0.7890;0.4363;-0.4189;1.3264;
26.8310;0.7077;4.1938;0.7890;0.4363;-0.4189;1.3264;
26.8320;0.7077;4.1938;0.7890;0.2792;-0.6806;0.5410;
26.8330;-4.3894;5.5123;-1.3252;0.2792;-0.6806;0.5410;
26.8940;-4.3894;5.5123;-1.3252;0.2792;-0.6806;0.5410;
26.8970;-4.3894;5.5123;-1.3252;0.2792;-0.6806;0.5410;
26.8970;-4.3894;5.5123;-1.3252;0.0872;-0.5934;0.6108;
26.8980;-2.1711;1.1739;-2.3221;0.0872;-0.5934;0.6108;
26.9600;-2.1711;1.1739;-2.3221;0.0872;-0.5934;0.6108;
26.9630;-2.1711;1.1739;-2.3221;0.0872;-0.5934;0.6108;
26.9630;-2.1711;1.1739;-2.3221;-0.1396;-0.2443;-0.6108;
26.9660;7.1408;-3.4146;-6.2690;-0.1396;-0.2443;-0.6108;
27.0280;7.1408;-3.4146;-6.2690;-0.1396;-0.2443;-0.6108;
27.0300;7.1408;-3.4146;-6.2690;-0.1396;-0.2443;-0.6108;
27.0310;7.1408;-3.4146;-6.2690;-0.3490;-0.0174;-2.9321;
27.0310;-1.4553;5.9229;-3.6931;-0.3490;-0.0174;-2.9321;
27.0930;-1.4553;5.9229;-3.6931;-0.3490;-0.0174;-2.9321;
27.0950;-1.4553;5.9229;-3.6931;-0.3490;-0.0174;-2.9321;
27.0950;-1.4553;5.9229;-3.6931;-0.6632;0.3316;-3.0193;
27.0960;-1.4541;-4.9011;0.7245;-0.6632;0.3316;-3.0193;
27.1580;-1.4541;-4.9011;0.7245;-0.6632;0.3316;-3.0193;
27.1610;-1.4541;-4.9011;0.7245;-0.6632;0.3316;-3.0193;
27.1610;-1.4541;-4.9011;0.7245;-0.8377;0.5934;-1.7627;
27.1620;-1.6098;4.0432;6.3342;-0.8377;0.5934;-1.7627;
27.2240;-1.6098;4.0432;6.3342;-0.8377;0.5934;-1.7627;
27.2270;-1.6098;4.0432;6.3342;-0.8377;0.5934;-1.7627;
27.2270;-1.6098;4.0432;6.3342;-0.8726;0.6981;0.4189;
27.2280;2.0595;-3.1033;-4.9891;-0.8726;0.6981;0.4189;
27.2900;2.0595;-3.1033;-4.9891;-0.8726;0.6981;0.4189;
27.2930;2.0595;-3.1033;-4.9891;-0.8726;0.6981;0.4189;
27.2930;2.0595;-3.1033;-4.9891;-0.5236;0.2269;0.2443;
27.2940;3.2373;1.9204;1.1291;-0.5236;0.2269;0.2443;
27.3560;3.2373;1.9204;1.1291;-0.5236;0.2269;0.2443;
27.3590;3.2373;1.9204;1.1291;-0.5236;0.2269;0.2443;
27.3590;3.2373;1.9204;1.1291;-0.1047;-0.4887;-0.1222;
27.3600;-2.2129;0.1268;3.4927;-0.1047;-0.4887;-0.1222;
27.4220;-2.2129;0.1268;3.4927;-0.1047;-0.4887;-0.1222;
27.4250;-2.2129;0.1268;3.4927;-0.1047;-0.4887;-0.1222;
27.4250;-2.2129;0.1268;3.4927;0.2094;-0.9424;-0.3316;
27.4260;-0.2973;0.3195;-0.7925;0.2094;-0.9424;-0.3316;
27.4880;-0.2973;0.3195;-0.7925;0.2094;-0.9424;-0.3316;
27.4910;-0.2973;0.3195;-0.7925;0.2094;-0.9424;-0.3316;
27.4910;-0.2973;0.3195;-0.7925;0.3840;-0.9075;-0.2269;
27.4920;1.8167;-1.1524;-0.5123;0.3840;-0.9075;-0.2269;
27.5540;1.8167;-1.1524;-0.5123;0.3840;-0.9075;-0.2269;
27.5570;1.8167;-1.1524;-0.5123;0.3840;-0.9075;-0.2269;
27.5570;1.8167;-1.1524;-0.5123;0.4538;-0.5759;-0.0524;
27.5580;3.0404;0.7594;2.6183;0.4538;-0.5759;-0.0524;
27.6200;3.0404;0.7594;2.6183;0.4538;-0.5759;-0.0524;
27.6230;3.0404;0.7594;2.6183;0.4538;-0.5759;-0.0524;
27.6230;3.0404;0.7594;2.6183;0.4712;-0.2618;0.0174;
27.6240;1.8006;-2.8425;3.4715;0.4712;-0.2618;0.0174;
27.6860;1.8006;-2.8425;3.4715;0.4712;-0.2618;0.0174;
27.6890;1.8006;-2.8425;3.4715;0.4712;-0.2618;0.0174;
27.6890;1.8006;-2.8425;3.4715;0.4712;-0.0174;1.2217;
27.6900;-0.3699;-2.4542;-1.6069;0.4712;-0.0174;1.2217;
27.7520;-0.3699;-2.4542;-1.6069;0.4712;-0.0174;1.2217;
27.7550;-0.3699;-2.4542;-1.6069;0.4712;-0.0174;1.2217;
27.7550;-0.3699;-2.4542;-1.6069;0.3490;0.1222;3.5255;
27.7560;-4.2729;-4.9650;0.1632;0.3490;0.1222;3.5255;
27.8180;-4.2729;-4.9650;0.1632;0.3490;0.1222;3.5255;
27.8200;-4.2729;-4.9650;0.1632;0.3490;0.1222;3.5255;
27.8210;-4.2729;-4.9650;0.1632;0.2967;0.1396;3.4906;
27.8220;2.0115;-1.9861;-0.9856;0.2967;0.1396;3.4906;
27.8840;2.0115;-1.9861;-0.9856;0.2967;0.1396;3.4906;
27.8930;2.0115;-1.9861;-0.9856;0.2967;0.1396;3.4906;
27.8940;2.0115;-1.9861;-0.9856;0.2094;0.0174;2.4259;
27.8950;3.2388;3.0623;1.4236;0.2094;0.0174;2.4259;
27.9560;3.2388;3.0623;1.4236;0.2094;0.0174;2.4259;
27.9570;3.2388;3.0623;1.4236;0.1396;-0.1571;0.4014;
27.9580;-2.8623;4.6844;-0.5680;0.1396;-0.1571;0.4014;
27.9600;-2.8623;4.6844;-0.5680;0.1396;-0.1571;0.4014;
28.0280;-2.8623;4.6844;-0.5680;0.1396;-0.1571;0.4014;
28.0280;-2.8623;4.6844;-0.5680;0.0000;-0.2269;0.5236;
28.0290;-5.2966;4.7466;-1.4072;0.0000;-0.2269;0.5236;
28.0300;-5.2966;4.7466;-1.4072;0.0000;-0.2269;0.5236;
28.0820;-5.2966;4.7466;-1.4072;0.0000;-0.2269;0.5236;
28.0850;-5.2966;4.7466;-1.4072;0.0000;-0.2269;0.5236;
28.0850;-5.2966;4.7466;-1.4072;-0.2443;0.0872;0.4014;
28.0860;7.8436;-4.8135;-5.9926;-0.2443;0.0872;0.4014;
28.1580;7.8436;-4.8135;-5.9926;-0.2443;0.0872;0.4014;
28.1600;7.8436;-4.8135;-5.9926;-0.2443;0.0872;0.4014;
28.1610;7.8436;-4.8135;-5.9926;-0.2967;0.1745;-1.6929;
28.1620;7.5737;0.9760;-4.4376;-0.2967;0.1745;-1.6929;
28.2150;7.5737;0.9760;-4.4376;-0.2967;0.1745;-1.6929;
28.2170;7.5737;0.9760;-4.4376;-0.2967;0.1745;-1.6929;
28.2180;7.5737;0.9760;-4.4376;-0.5061;0.3141;-2.8797;
28.2180;-0.4805;-4.8605;4.2242;-0.5061;0.3141;-2.8797;
28.2880;-0.4805;-4.8605;4.2242;-0.5061;0.3141;-2.8797;
28.2890;-0.4805;-4.8605;4.2242;-0.5061;0.3141;-2.8797;
28.2910;-0.4805;-4.8605;4.2242;-0.6981;0.3490;-2.7226;
28.2920;-4.3675;-2.2176;0.1349;-0.6981;0.3490;-2.7226;
28.3460;-4.3675;-2.2176;0.1349;-0.6981;0.3490;-2.7226;
28.3490;-4.3675;-2.2176;0.1349;-0.6981;0.3490;-2.7226;
28.3500;-4.3675;-2.2176;0.1349;-0.8203;0.4014;0.6283;
28.3510;-2.8729;-0.0268;2.7018;-0.8203;0.4014;0.6283;
28.4130;-2.8729;-0.0268;2.7018;-0.8203;0.4014;0.6283;
28.4150;-2.8729;-0.0268;2.7018;-0.8203;0.4014;0.6283;
28.4160;-2.8729;-0.0268;2.7018;-0.7156;0.2792;0.6632;
28.4170;3.1936;0.9059;-3.0143;-0.7156;0.2792;0.6632;
28.4790;3.1936;0.9059;-3.0143;-0.7156;0.2792;0.6632;
28.4810;3.1936;0.9059;-3.0143;-0.7156;0.2792;0.6632;
28.4820;3.1936;0.9059;-3.0143;-0.3141;-0.1047;0.2967;
28.4830;1.7740;1.6952;1.6129;-0.3141;-0.1047;0.2967;
28.5610;1.7740;1.6952;1.6129;-0.3141;-0.1047;0.2967;
28.5620;1.7740;1.6952;1.6129;-0.0524;-0.4363;-0.1047;
28.5650;-0.2744;0.1211;1.5308;-0.0524;-0.4363;-0.1047;
28.5660;-0.2744;0.1211;1.5308;-0.0524;-0.4363;-0.1047;
28.6110;-0.2744;0.1211;1.5308;-0.0524;-0.4363;-0.1047;
28.6130;-0.2744;0.1211;1.5308;-0.0524;-0.4363;-0.1047;
28.6140;-0.2744;0.1211;1.5308;0.2792;-0.8726;-0.5585;
28.6160;-1.8147;-0.4468;2.0902;0.2792;-0.8726;-0.5585;
28.6770;-1.8147;-0.4468;2.0902;0.2792;-0.8726;-0.5585;
28.6790;-1.8147;-0.4468;2.0902;0.2792;-0.8726;-0.5585;
28.6810;-1.8147;-0.4468;2.0902;0.3840;-0.9773;-0.5061;
28.7050;3.3924;0.3697;0.5575;0.3840;-0.9773;-0.5061;
28.7430;3.3924;0.3697;0.5575;0.3840;-0.9773;-0.5061;
28.7450;3.3924;0.3697;0.5575;0.3840;-0.9773;-0.5061;
28.7460;3.3924;0.3697;0.5575;0.2443;-0.8552;0.6981;
28.7470;4.6723;-0.6331;2.3507;0.2443;-0.8552;0.6981;
28.8090;4.6723;-0.6331;2.3507;0.2443;-0.8552;0.6981;
28.8110;4.6723;-0.6331;2.3507;0.2443;-0.8552;0.6981;
28.8120;4.6723;-0.6331;2.3507;0.1047;-0.7330;3.1066;
28.8130;-0.6415;-1.9922;-1.1838;0.1047;-0.7330;3.1066;
28.8750;-0.6415;-1.9922;-1.1838;0.1047;-0.7330;3.1066;
28.8780;-0.6415;-1.9922;-1.1838;0.1047;-0.7330;3.1066;
28.8790;-0.6415;-1.9922;-1.1838;0.2792;-0.8377;3.0717;
28.8800;-2.4788;-3.3058;0.5635;0.2792;-0.8377;3.0717;
28.9410;-2.4788;-3.3058;0.5635;0.2792;-0.8377;3.0717;
28.9430;-2.4788;-3.3058;0.5635;0.2792;-0.8377;3.0717;
28.9450;-2.4788;-3.3058;0.5635;0.4014;-1.0297;2.9146;
28.9470;-2.0112;-2.9212;3.4399;0.4014;-1.0297;2.9146;
29.0080;-2.0112;-2.9212;3.4399;0.4014;-1.0297;2.9146;
29.0100;-2.0112;-2.9212;3.4399;0.4014;-1.0297;2.9146;
29.0110;-2.0112;-2.9212;3.4399;0.6806;-1.1693;-0.2094;
29.0120;3.3175;1.8634;1.3663;0.6806;-1.1693;-0.2094;
29.0730;3.3175;1.8634;1.3663;0.6806;-1.1693;-0.2094;
29.0750;3.3175;1.8634;1.3663;0.6806;-1.1693;-0.2094;
29.0770;3.3175;1.8634;1.3663;0.4538;-0.8726;-0.0349;
29.0780;-3.1895;4.8514;-1.8672;0.4538;-0.8726;-0.0349;
29.1390;-3.1895;4.8514;-1.8672;0.4538;-0.8726;-0.0349;
29.1410;-3.1895;4.8514;-1.8672;0.4538;-0.8726;-0.0349;
29.1420;-3.1895;4.8514;-1.8672;0.1920;-0.5410;0.1920;
29.1430;-5.1984;4.3402;-1.0189;0.1920;-0.5410;0.1920;
29.2050;-5.1984;4.3402;-1.0189;0.1920;-0.5410;0.1920;
29.2070;-5.1984;4.3402;-1.0189;0.1920;-0.5410;0.1920;
29.2080;-5.1984;4.3402;-1.0189;-0.0174;-0.2094;0.2443;
29.2090;1.1898;0.7131;-3.1617;-0.0174;-0.2094;0.2443;
29.2700;1.1898;0.7131;-3.1617;-0.0174;-0.2094;0.2443;
29.2730;1.1898;0.7131;-3.1617;-0.0174;-0.2094;0.2443;
29.2740;1.1898;0.7131;-3.1617;-0.2618;0.1920;-1.0123;
29.2750;3.1650;3.4568;-3.5911;-0.2618;0.1920;-1.0123;
29.3360;3.1650;3.4568;-3.5911;-0.2618;0.1920;-1.0123;
29.3390;3.1650;3.4568;-3.5911;-0.2618;0.1920;-1.0123;
29.3400;3.1650;3.4568;-3.5911;-0.2618;0.3490;-3.3858;
29.3400;2.2367;-6.7775;1.6794;-0.2618;0.3490;-3.3858;
29.4030;2.2367;-6.7775;1.6794;-0.2618;0.3490;-3.3858;
29.4060;2.2367;-6.7775;1.6794;-0.2618;0.3490;-3.3858;
29.4060;2.2367;-6.7775;1.6794;-0.4014;0.6458;-3.2986;
29.4070;-6.6913;2.0581;0.8411;-0.4014;0.6458;-3.2986;
29.4680;-6.6913;2.0581;0.8411;-0.4014;0.6458;-3.2986;
29.4710;-6.6913;2.0581;0.8411;-0.4014;0.6458;-3.2986;
29.4720;-6.6913;2.0581;0.8411;-0.4538;0.8901;-3.0368;
29.4720;-2.9292;0.4505;4.0871;-0.4538;0.8901;-3.0368;
29.5350;-2.9292;0.4505;4.0871;-0.4538;0.8901;-3.0368;
29.5390;-2.9292;0.4505;4.0871;-0.4538;0.8901;-3.0368;
29.5400;-2.9292;0.4505;4.0871;-0.5585;0.9773;0.4712;
29.5400;3.3013;-2.2889;-5.0247;-0.5585;0.9773;0.4712;
29.6010;3.3013;-2.2889;-5.0247;-0.5585;0.9773;0.4712;
29.6030;3.3013;-2.2889;-5.0247;-0.5585;0.9773;0.4712;
29.6040;3.3013;-2.2889;-5.0247;-0.2618;0.5410;0.2443;
29.6050;2.3228;2.6082;2.4303;-0.2618;0.5410;0.2443;
29.6660;2.3228;2.6082;2.4303;-0.2618;0.5410;0.2443;
29.6690;2.3228;2.6082;2.4303;-0.2618;0.5410;0.2443;
29.6690;2.3228;2.6082;2.4303;0.1222;-0.0524;-0.3490;
29.6700;0.1590;0.4465;-1.4067;0.1222;-0.0524;-0.3490;
29.7320;0.1590;0.4465;-1.4067;0.1222;-0.0524;-0.3490;
29.7350;0.1590;0.4465;-1.4067;0.1222;-0.0524;-0.3490;
29.7350;0.1590;0.4465;-1.4067;0.4363;-0.5236;-0.6806;
29.7360;-1.9940;0.6171;0.7240;0.4363;-0.5236;-0.6806;
29.7990;-1.9940;0.6171;0.7240;0.4363;-0.5236;-0.6806;
29.8010;-1.9940;0.6171;0.7240;0.4363;-0.5236;-0.6806;
29.8010;-1.9940;0.6171;0.7240;0.5585;-0.6981;-0.5236;
29.8020;3.0931;0.4779;0.3676;0.5585;-0.6981;-0.5236;
29.8640;3.0931;0.4779;0.3676;0.5585;-0.6981;-0.5236;
29.8670;3.0931;0.4779;0.3676;0.5585;-0.6981;-0.5236;
29.8670;3.0931;0.4779;0.3676;0.5236;-0.5934;-0.1222;
29.8680;2.9824;0.1812;2.5707;0.5236;-0.5934;-0.1222;
29.9310;2.9824;0.1812;2.5707;0.5236;-0.5934;-0.1222;
29.9490;2.9824;0.1812;2.5707;0.5236;-0.5934;-0.1222;
29.9500;2.9824;0.1812;2.5707;0.3316;-0.3316;3.3684;
29.9510;1.0386;-3.3547;3.0849;0.3316;-0.3316;3.3684;
29.9960;1.0386;-3.3547;3.0849;0.3316;-0.3316;3.3684;
30.0020;1.0386;-3.3547;3.0849;0.3316;-0.3316;3.3684;
30.0030;1.0386;-3.3547;3.0849;0.2792;-0.1222;3.3160;
30.0040;-1.2867;-3.1324;-1.6575;0.2792;-0.1222;3.3160;
30.0780;-1.2867;-3.1324;-1.6575;0.2792;-0.1222;3.3160;
30.0790;-1.2867;-3.1324;-1.6575;0.2269;0.0000;3.0542;
30.0800;-4.8502;-4.2935;-0.0755;0.2269;0.0000;3.0542;
30.0810;-4.8502;-4.2935;-0.0755;0.2269;0.0000;3.0542;
30.1320;-4.8502;-4.2935;-0.0755;0.2269;0.0000;3.0542;
30.1330;-4.8502;-4.2935;-0.0755;0.2792;0.0174;0.7156;
30.1340;2.1672;-3.3173;-0.3025;0.2792;0.0174;0.7156;
30.1350;2.1672;-3.3173;-0.3025;0.2792;0.0174;0.7156;
30.1980;2.1672;-3.3173;-0.3025;0.2792;0.0174;0.7156;
30.2000;2.1672;-3.3173;-0.3025;0.2618;-0.0524;-0.2443;
30.2120;1.6695;4.3597;0.3016;0.2618;-0.0524;-0.2443;
30.2130;1.6695;4.3597;0.3016;0.2618;-0.0524;-0.2443;
30.2610;1.6695;4.3597;0.3016;0.2618;-0.0524;-0.2443;
30.2630;1.6695;4.3597;0.3016;0.2618;-0.0524;-0.2443;
30.2640;1.6695;4.3597;0.3016;0.1571;-0.1920;0.0872;
30.2650;-3.3609;5.8661;-1.6046;0.1571;-0.1920;0.0872;
30.3340;-3.3609;5.8661;-1.6046;0.1571;-0.1920;0.0872;
30.3350;-3.3609;5.8661;-1.6046;0.0000;-0.2443;0.4189;
30.3360;-4.6474;3.3789;-0.6103;0.0000;-0.2443;0.4189;
30.3370;-4.6474;3.3789;-0.6103;0.0000;-0.2443;0.4189;
30.3930;-4.6474;3.3789;-0.6103;0.0000;-0.2443;0.4189;
30.3950;-4.6474;3.3789;-0.6103;0.0000;-0.2443;0.4189;
30.3970;-4.6474;3.3789;-0.6103;-0.2443;0.0000;-0.6632;
30.3980;8.6642;-2.8513;-4.4591;-0.2443;0.0000;-0.6632;
30.4690;8.6642;-2.8513;-4.4591;-0.2443;0.0000;-0.6632;
30.4700;8.6642;-2.8513;-4.4591;-0.2967;0.0698;-2.9844;
30.4710;2.9756;4.7027;-4.4270;-0.2967;0.0698;-2.9844;
30.4720;2.9756;4.7027;-4.4270;-0.2967;0.0698;-2.9844;
30.5250;2.9756;4.7027;-4.4270;-0.2967;0.0698;-2.9844;
30.5270;2.9756;4.7027;-4.4270;-0.2967;0.0698;-2.9844;
30.5280;2.9756;4.7027;-4.4270;-0.5236;0.1745;-3.1415;
30.5290;-0.1030;-9.0446;-3.2990;-0.5236;0.1745;-3.1415;
30.5970;-0.1030;-9.0446;-3.2990;-0.5236;0.1745;-3.1415;
30.5980;-0.1030;-9.0446;-3.2990;-0.5236;0.1745;-3.1415;
30.6000;-0.1030;-9.0446;-3.2990;-0.6458;0.3665;-2.9844;
30.6010;-4.5110;4.5954;2.4083;-0.6458;0.3665;-2.9844;
30.6570;-4.5110;4.5954;2.4083;-0.6458;0.3665;-2.9844;
30.6600;-4.5110;4.5954;2.4083;-0.6458;0.3665;-2.9844;
30.6610;-4.5110;4.5954;2.4083;-0.7156;0.5934;0.4712;
30.6620;-1.5956;-0.9693;2.9095;-0.7156;0.5934;0.4712;
30.7260;-1.5956;-0.9693;2.9095;-0.7156;0.5934;0.4712;
30.7270;-1.5956;-0.9693;2.9095;-0.7156;0.5934;0.4712;
30.7280;-1.5956;-0.9693;2.9095;-0.6283;0.6108;0.5061;
30.7290;2.1910;2.1082;-0.7981;-0.6283;0.6108;0.5061;
30.7890;2.1910;2.1082;-0.7981;-0.6283;0.6108;0.5061;
30.7910;2.1910;2.1082;-0.7981;-0.6283;0.6108;0.5061;
30.7920;2.1910;2.1082;-0.7981;-0.3316;0.2094;0.2094;
30.7930;-0.0331;1.5596;2.9638;-0.3316;0.2094;0.2094;
30.8560;-0.0331;1.5596;2.9638;-0.3316;0.2094;0.2094;
30.8570;-0.0331;1.5596;2.9638;-0.3316;0.2094;0.2094;
30.8580;-0.0331;1.5596;2.9638;0.0000;-0.3665;-0.2269;
30.8600;0.4475;0.9684;-1.4474;0.0000;-0.3665;-0.2269;
30.9210;0.4475;0.9684;-1.4474;0.0000;-0.3665;-0.2269;
30.9230;0.4475;0.9684;-1.4474;0.0000;-0.3665;-0.2269;
30.9250;0.4475;0.9684;-1.4474;0.2094;-0.8203;-0.4189;
30.9270;-1.0455;0.1965;2.2585;0.2094;-0.8203;-0.4189;
30.9870;-1.0455;0.1965;2.2585;0.2094;-0.8203;-0.4189;
30.9890;-1.0455;0.1965;2.2585;0.2094;-0.8203;-0.4189;
30.9910;-1.0455;0.1965;2.2585;0.3141;-1.0472;-0.3665;
30.9920;2.1069;-0.1592;2.0168;0.3141;-1.0472;-0.3665;
31.0530;2.1069;-0.1592;2.0168;0.3141;-1.0472;-0.3665;
31.0560;2.1069;-0.1592;2.0168;0.3141;-1.0472;-0.3665;
31.0570;2.1069;-0.1592;2.0168;0.3141;-1.1344;-0.1396;
31.0590;2.3534;-0.3977;1.7596;0.3141;-1.1344;-0.1396;
31.1190;2.3534;-0.3977;1.7596;0.3141;-1.1344;-0.1396;
31.1400;2.3534;-0.3977;1.7596;0.3141;-1.1344;-0.1396;
31.1410;2.3534;-0.3977;1.7596;0.2269;-0.7679;3.5604;
31.1430;0.0727;-2.1269;-1.7805;0.2269;-0.7679;3.5604;
31.2420;0.0727;-2.1269;-1.7805;0.2269;-0.7679;3.5604;
31.2430;0.0727;-2.1269;-1.7805;0.3840;-0.2618;3.3858;
31.2440;0.0727;-2.1269;-1.7805;0.3840;-0.2618;3.3858;
31.2450;-2.6400;-3.1138;1.9171;0.3840;-0.2618;3.3858;
31.2460;-2.6400;-3.1138;1.9171;0.3840;-0.2618;3.3858;
31.2470;-2.6400;-3.1138;1.9171;0.3840;-0.2618;3.3858;
31.2500;-2.6400;-3.1138;1.9171;0.3840;-0.2618;3.3858;
31.2530;-2.6400;-3.1138;1.9171;0.3840;-0.2618;3.3858;
31.2540;-2.6400;-3.1138;1.9171;0.3840;-0.2618;3.3858;
31.3160;-2.6400;-3.1138;1.9171;0.3840;-0.2618;3.3858;
31.3190;-2.6400;-3.1138;1.9171;0.3840;-0.2618;3.3858;
31.3200;-2.6400;-3.1138;1.9171;0.4363;-0.4189;0.0000;
31.3210;2.3927;2.9218;0.9778;0.4363;-0.4189;0.0000;
31.3820;2.3927;2.9218;0.9778;0.4363;-0.4189;0.0000;
31.3850;2.3927;2.9218;0.9778;0.4363;-0.4189;0.0000;
31.3860;2.3927;2.9218;0.9778;0.2618;-0.4887;0.1047;
31.3860;-2.5769;4.9800;-0.9616;0.2618;-0.4887;0.1047;
31.4480;-2.5769;4.9800;-0.9616;0.2618;-0.4887;0.1047;
31.4510;-2.5769;4.9800;-0.9616;0.2618;-0.4887;0.1047;
31.4520;-2.5769;4.9800;-0.9616;0.0174;-0.3665;0.3490;
31.4520;-5.4224;4.0415;-0.7635;0.0174;-0.3665;0.3490;
31.5140;-5.4224;4.0415;-0.7635;0.0174;-0.3665;0.3490;
31.5170;-5.4224;4.0415;-0.7635;0.0174;-0.3665;0.3490;
31.5180;-5.4224;4.0415;-0.7635;-0.2094;-0.0174;0.3665;
31.5180;-1.2603;1.1900;-2.1658;-0.2094;-0.0174;0.3665;
31.5810;-1.2603;1.1900;-2.1658;-0.2094;-0.0174;0.3665;
31.5820;-1.2603;1.1900;-2.1658;-0.2094;-0.0174;0.3665;
31.5830;-1.2603;1.1900;-2.1658;-0.4538;0.5236;-0.9424;
31.5840;2.4705;4.2317;-4.4463;-0.4538;0.5236;-0.9424;
31.6460;2.4705;4.2317;-4.4463;-0.4538;0.5236;-0.9424;
31.6480;2.4705;4.2317;-4.4463;-0.4538;0.5236;-0.9424;
31.6490;2.4705;4.2317;-4.4463;-0.4363;0.6108;-3.3509;
31.6500;-1.4628;-3.6346;6.5738;-0.4363;0.6108;-3.3509;
31.7120;-1.4628;-3.6346;6.5738;-0.4363;0.6108;-3.3509;
31.7140;-1.4628;-3.6346;6.5738;-0.4363;0.6108;-3.3509;
31.7150;-1.4628;-3.6346;6.5738;-0.4538;0.8552;-3.2986;
31.7160;-2.9595;0.2467;-0.0060;-0.4538;0.8552;-3.2986;
31.7780;-2.9595;0.2467;-0.0060;-0.4538;0.8552;-3.2986;
31.7810;-2.9595;0.2467;-0.0060;-0.4538;0.8552;-3.2986;
31.7810;-2.9595;0.2467;-0.0060;-0.4538;0.9599;-3.0542;
31.7820;-2.0565;1.9656;4.8761;-0.4538;0.9599;-3.0542;
31.8450;-2.0565;1.9656;4.8761;-0.4538;0.9599;-3.0542;
31.8470;-2.0565;1.9656;4.8761;-0.4538;0.9599;-3.0542;
31.8480;-2.0565;1.9656;4.8761;-0.4712;1.0472;0.4189;
31.8480;0.4827;-2.6325;-4.7186;-0.4712;1.0472;0.4189;
31.9100;0.4827;-2.6325;-4.7186;-0.4712;1.0472;0.4189;
31.9130;0.4827;-2.6325;-4.7186;-0.4712;1.0472;0.4189;
31.9140;0.4827;-2.6325;-4.7186;-0.2269;0.4887;0.2269;
31.9150;0.9599;2.3396;2.7615;-0.2269;0.4887;0.2269;
31.9760;0.9599;2.3396;2.7615;-0.2269;0.4887;0.2269;
31.9790;0.9599;2.3396;2.7615;-0.2269;0.4887;0.2269;
31.9800;0.9599;2.3396;2.7615;0.0698;-0.1920;-0.1571;
31.9970;0.6314;0.9559;-2.3631;0.0698;-0.1920;-0.1571;
32.0430;0.6314;0.9559;-2.3631;0.0698;-0.1920;-0.1571;
32.0500;0.6314;0.9559;-2.3631;0.0698;-0.1920;-0.1571;
32.0510;0.6314;0.9559;-2.3631;0.3141;-0.6458;-0.3490;
32.0520;-1.7406;0.6989;0.9723;0.3141;-0.6458;-0.3490;
32.1480;-1.7406;0.6989;0.9723;0.3141;-0.6458;-0.3490;
32.1490;-1.7406;0.6989;0.9723;0.3141;-0.6458;-0.3490;
32.1500;-1.7406;0.6989;0.9723;0.4538;-0.6806;-0.2443;
32.1510;2.7357;0.3784;1.8051;0.4538;-0.6806;-0.2443;
32.1790;2.7357;0.3784;1.8051;0.4538;-0.6806;-0.2443;
32.1800;2.7357;0.3784;1.8051;0.4712;-0.5585;-0.1222;
32.1810;2.9815;-0.5188;2.8688;0.4712;-0.5585;-0.1222;
32.1820;2.9815;-0.5188;2.8688;0.4712;-0.5585;-0.1222;
32.2530;2.9815;-0.5188;2.8688;0.4712;-0.5585;-0.1222;
32.2550;2.9815;-0.5188;2.8688;0.3840;-0.2792;2.0943;
32.2560;1.7812;-2.8395;2.2823;0.3840;-0.2792;2.0943;
32.2570;1.7812;-2.8395;2.2823;0.3840;-0.2792;2.0943;
32.3090;1.7812;-2.8395;2.2823;0.3840;-0.2792;2.0943;
32.3100;1.7812;-2.8395;2.2823;0.3840;-0.2792;2.0943;
32.3110;1.7812;-2.8395;2.2823;0.3665;-0.2094;3.2462;
32.3120;-1.6451;-3.0538;-1.2074;0.3665;-0.2094;3.2462;
32.3760;-1.6451;-3.0538;-1.2074;0.3665;-0.2094;3.2462;
32.3770;-1.6451;-3.0538;-1.2074;0.4014;-0.2967;3.0542;
32.3770;-2.9909;-3.5476;1.2509;0.4014;-0.2967;3.0542;
32.3820;-2.9909;-3.5476;1.2509;0.4014;-0.2967;3.0542;
32.4390;-2.9909;-3.5476;1.2509;0.4014;-0.2967;3.0542;
32.4410;-2.9909;-3.5476;1.2509;0.4014;-0.2967;3.0542;
32.4420;-2.9909;-3.5476;1.2509;0.4363;-0.4189;0.9250;
32.4430;4.3651;-0.0892;0.7015;0.4363;-0.4189;0.9250;
32.5080;4.3651;-0.0892;0.7015;0.4363;-0.4189;0.9250;
32.5090;4.3651;-0.0892;0.7015;0.3490;-0.4363;-0.0524;
32.5100;-1.4546;4.1606;-1.4501;0.3490;-0.4363;-0.0524;
32.5190;-1.4546;4.1606;-1.4501;0.3490;-0.4363;-0.0524;
32.5710;-1.4546;4.1606;-1.4501;0.3490;-0.4363;-0.0524;
32.5730;-1.4546;4.1606;-1.4501;0.3490;-0.4363;-0.0524;
32.5740;-1.4546;4.1606;-1.4501;0.1396;-0.2967;0.1920;
32.5750;-5.0175;4.7147;-0.5712;0.1396;-0.2967;0.1920;
32.6370;-5.0175;4.7147;-0.5712;0.1396;-0.2967;0.1920;
32.6390;-5.0175;4.7147;-0.5712;0.1396;-0.2967;0.1920;
32.6400;-5.0175;4.7147;-0.5712;-0.0872;0.0174;0.3141;
32.6410;-3.2744;4.3182;-0.5584;-0.0872;0.0174;0.3141;
32.7030;-3.2744;4.3182;-0.5584;-0.0872;0.0174;0.3141;
32.7080;-3.2744;4.3182;-0.5584;-0.0872;0.0174;0.3141;
32.7090;-3.2744;4.3182;-0.5584;-0.4712;0.8028;0.2269;
32.7110;6.2220;1.3451;-6.0038;-0.4712;0.8028;0.2269;
32.7750;6.2220;1.3451;-6.0038;-0.4712;0.8028;0.2269;
32.7760;6.2220;1.3451;-6.0038;-0.5236;1.0123;-0.9599;
32.7770;-1.6801;5.9577;-4.8283;-0.5236;1.0123;-0.9599;
32.7780;-1.6801;5.9577;-4.8283;-0.5236;1.0123;-0.9599;
32.8420;-1.6801;5.9577;-4.8283;-0.5236;1.0123;-0.9599;
32.8430;-1.6801;5.9577;-4.8283;-0.5236;1.0123;-0.9599;
32.8450;-1.6801;5.9577;-4.8283;-0.4712;1.0646;-3.1590;
32.8460;-2.3979;-1.6268;0.3348;-0.4712;1.0646;-3.1590;
32.9010;-2.3979;-1.6268;0.3348;-0.4712;1.0646;-3.1590;
32.9030;-2.3979;-1.6268;0.3348;-0.4712;1.0646;-3.1590;
32.9040;-2.3979;-1.6268;0.3348;-0.4538;1.1170;-2.8972;
32.9040;-2.7700;2.7923;4.5123;-0.4538;1.1170;-2.8972;
32.9690;-2.7700;2.7923;4.5123;-0.4538;1.1170;-2.8972;
32.9710;-2.7700;2.7923;4.5123;-0.4538;1.1170;-2.8972;
32.9720;-2.7700;2.7923;4.5123;-0.4014;0.9599;-1.6231;
32.9730;-0.6715;-2.3559;1.8775;-0.4014;0.9599;-1.6231;
33.0330;-0.6715;-2.3559;1.8775;-0.4014;0.9599;-1.6231;
33.0360;-0.6715;-2.3559;1.8775;-0.4014;0.9599;-1.6231;
33.0380;-0.6715;-2.3559;1.8775;-0.4363;0.8377;0.4363;
33.0380;0.6614;3.5857;1.2599;-0.4363;0.8377;0.4363;
33.0990;0.6614;3.5857;1.2599;-0.4363;0.8377;0.4363;
33.1010;0.6614;3.5857;1.2599;-0.4363;0.8377;0.4363;
33.1030;0.6614;3.5857;1.2599;0.0000;-0.0349;0.0000;
33.1040;0.7942;0.0802;-1.9469;0.0000;-0.0349;0.0000;
33.1660;0.7942;0.0802;-1.9469;0.0000;-0.0349;0.0000;
33.1680;0.7942;0.0802;-1.9469;0.0000;-0.0349;0.0000;
33.1690;0.7942;0.0802;-1.9469;0.2792;-0.4712;-0.3141;
33.1700;-2.3130;1.5470;2.4102;0.2792;-0.4712;-0.3141;
33.2310;-2.3130;1.5470;2.4102;0.2792;-0.4712;-0.3141;
33.2330;-2.3130;1.5470;2.4102;0.2792;-0.4712;-0.3141;
33.2370;-2.3130;1.5470;2.4102;0.4014;-0.5759;-0.3141;
33.2390;0.8617;-0.8668;-1.0816;0.4014;-0.5759;-0.3141;
33.2970;0.8617;-0.8668;-1.0816;0.4014;-0.5759;-0.3141;
33.3000;0.8617;-0.8668;-1.0816;0.4014;-0.5759;-0.3141;
33.3010;0.8617;-0.8668;-1.0816;0.4189;-0.5759;-0.2094;
33.3020;2.5294;-0.8721;2.2689;0.4189;-0.5759;-0.2094;
33.3630;2.5294;-0.8721;2.2689;0.4189;-0.5759;-0.2094;
33.3650;2.5294;-0.8721;2.2689;0.4189;-0.5759;-0.2094;
33.3660;2.5294;-0.8721;2.2689;0.4014;-0.2443;0.0174;
33.3670;1.9715;-2.7757;2.0226;0.4014;-0.2443;0.0174;
33.4290;1.9715;-2.7757;2.0226;0.4014;-0.2443;0.0174;
33.4310;1.9715;-2.7757;2.0226;0.4014;-0.2443;0.0174;
33.4320;1.9715;-2.7757;2.0226;0.3665;-0.1047;3.7349;
33.4330;0.1327;-2.4342;-1.4705;0.3665;-0.1047;3.7349;
33.4950;0.1327;-2.4342;-1.4705;0.3665;-0.1047;3.7349;
33.4980;0.1327;-2.4342;-1.4705;0.3665;-0.1047;3.7349;
33.4990;0.1327;-2.4342;-1.4705;0.3665;-0.1222;3.6825;
33.5000;-3.1809;-4.4232;0.6392;0.3665;-0.1222;3.6825;
33.5610;-3.1809;-4.4232;0.6392;0.3665;-0.1222;3.6825;
33.5630;-3.1809;-4.4232;0.6392;0.3665;-0.1222;3.6825;
33.5640;-3.1809;-4.4232;0.6392;0.3316;-0.3141;3.5953;
33.5650;5.7692;-0.2297;-0.1902;0.3316;-0.3141;3.5953;
33.6270;5.7692;-0.2297;-0.1902;0.3316;-0.3141;3.5953;
33.6290;5.7692;-0.2297;-0.1902;0.3316;-0.3141;3.5953;
33.6300;5.7692;-0.2297;-0.1902;0.2967;-0.3490;0.1222;
33.6310;-1.6053;4.0862;-0.2324;0.2967;-0.3490;0.1222;
33.6930;-1.6053;4.0862;-0.2324;0.2967;-0.3490;0.1222;
33.6950;-1.6053;4.0862;-0.2324;0.2967;-0.3490;0.1222;
33.6960;-1.6053;4.0862;-0.2324;0.0698;-0.1571;0.1745;
33.6970;-5.1629;5.2249;-1.1405;0.0698;-0.1571;0.1745;
33.7590;-5.1629;5.2249;-1.1405;0.0698;-0.1571;0.1745;
33.7610;-5.1629;5.2249;-1.1405;0.0698;-0.1571;0.1745;
33.7620;-5.1629;5.2249;-1.1405;-0.1920;0.2618;0.2618;
33.7630;-5.0953;4.7621;0.4922;-0.1920;0.2618;0.2618;
33.8250;-5.0953;4.7621;0.4922;-0.1920;0.2618;0.2618;
33.8270;-5.0953;4.7621;0.4922;-0.1920;0.2618;0.2618;
33.8280;-5.0953;4.7621;0.4922;-0.5410;0.9773;0.1745;
33.8290;12.3893;-8.2233;-8.3153;-0.5410;0.9773;0.1745;
33.8910;12.3893;-8.2233;-8.3153;-0.5410;0.9773;0.1745;
33.8930;12.3893;-8.2233;-8.3153;-0.5410;0.9773;0.1745;
33.8940;12.3893;-8.2233;-8.3153;-0.6632;0.9424;-3.5429;
33.8950;1.2281;5.5218;-5.8734;-0.6632;0.9424;-3.5429;
33.9570;1.2281;5.5218;-5.8734;-0.6632;0.9424;-3.5429;
33.9630;1.2281;5.5218;-5.8734;-0.6632;0.9424;-3.5429;
33.9640;1.2281;5.5218;-5.8734;-0.6806;0.7156;-3.5953;
33.9730;0.6666;-8.4294;0.4872;-0.6806;0.7156;-3.5953;
34.0240;0.6666;-8.4294;0.4872;-0.6806;0.7156;-3.5953;
34.0250;0.6666;-8.4294;0.4872;-0.6806;0.7156;-3.5953;
34.0270;0.6666;-8.4294;0.4872;-0.5236;0.8028;-3.3335;
34.0280;-5.3987;3.1924;2.4755;-0.5236;0.8028;-3.3335;
34.0890;-5.3987;3.1924;2.4755;-0.5236;0.8028;-3.3335;
34.0910;-5.3987;3.1924;2.4755;-0.5236;0.8028;-3.3335;
34.0920;-5.3987;3.1924;2.4755;-0.4014;1.2391;0.5410;
34.1030;-2.3583;-1.5663;3.6542;-0.4014;1.2391;0.5410;
34.1550;-2.3583;-1.5663;3.6542;-0.4014;1.2391;0.5410;
34.1720;-2.3583;-1.5663;3.6542;-0.4014;1.2391;0.5410;
34.1730;-2.3583;-1.5663;3.6542;-0.1745;1.3613;0.6283;
34.1780;2.4535;0.9546;-2.8596;-0.1745;1.3613;0.6283;
34.2290;2.4535;0.9546;-2.8596;-0.1745;1.3613;0.6283;
34.2310;2.4535;0.9546;-2.8596;0.0524;0.7679;0.2792;
34.2320;1.4182;1.3206;1.5499;0.0524;0.7679;0.2792;
34.2330;1.4182;1.3206;1.5499;0.0524;0.7679;0.2792;
34.3090;1.4182;1.3206;1.5499;0.0524;0.7679;0.2792;
34.3100;1.4182;1.3206;1.5499;0.2792;0.0349;-0.2618;
34.3110;0.2479;0.6178;-1.8877;0.2792;0.0349;-0.2618;
34.3120;0.2479;0.6178;-1.8877;0.2792;0.0349;-0.2618;
34.3620;0.2479;0.6178;-1.8877;0.2792;0.0349;-0.2618;
34.3650;0.2479;0.6178;-1.8877;0.4712;-0.3840;-0.4712;
34.3670;-1.2962;-0.6912;1.9893;0.4712;-0.3840;-0.4712;
34.3680;-1.2962;-0.6912;1.9893;0.4712;-0.3840;-0.4712;
34.4390;-1.2962;-0.6912;1.9893;0.4712;-0.3840;-0.4712;
34.4420;-1.2962;-0.6912;1.9893;0.5410;-0.3141;-0.2792;
34.4430;2.7580;0.5885;2.7269;0.5410;-0.3141;-0.2792;
34.4440;2.7580;0.5885;2.7269;0.5410;-0.3141;-0.2792;
34.4880;2.7580;0.5885;2.7269;0.5410;-0.3141;-0.2792;
34.4890;2.7580;0.5885;2.7269;0.5410;-0.3141;-0.2792;
34.4900;2.7580;0.5885;2.7269;0.5585;0.0000;0.0000;
34.4910;3.3967;-0.9474;0.4984;0.5585;0.0000;0.0000;
34.5680;3.3967;-0.9474;0.4984;0.5585;0.0000;0.0000;
34.5720;3.3967;-0.9474;0.4984;0.5585;0.3665;0.1222;
34.5740;0.4584;-2.0703;1.1126;0.5585;0.3665;0.1222;
34.5750;0.4584;-2.0703;1.1126;0.5585;0.3665;0.1222;
34.6170;0.4584;-2.0703;1.1126;0.5585;0.3665;0.1222;
34.6190;0.4584;-2.0703;1.1126;0.5585;0.3665;0.1222;
34.6200;0.4584;-2.0703;1.1126;0.4712;0.3840;3.2113;
34.6220;-1.4418;-3.4094;-0.5575;0.4712;0.3840;3.2113;
34.6970;-1.4418;-3.4094;-0.5575;0.4712;0.3840;3.2113;
34.6980;-1.4418;-3.4094;-0.5575;0.4363;0.1571;3.1415;
34.6990;-3.6583;-4.8039;0.1297;0.4363;0.1571;3.1415;
34.7000;-3.6583;-4.8039;0.1297;0.4363;0.1571;3.1415;
34.7490;-3.6583;-4.8039;0.1297;0.4363;0.1571;3.1415;
34.7510;-3.6583;-4.8039;0.1297;0.4363;0.1571;3.1415;
34.7520;-3.6583;-4.8039;0.1297;0.3141;-0.2443;3.0368;
34.7530;2.8523;1.6594;0.7369;0.3141;-0.2443;3.0368;
34.8200;2.8523;1.6594;0.7369;0.3141;-0.2443;3.0368;
34.8210;2.8523;1.6594;0.7369;0.3141;-0.2443;3.0368;
34.8220;2.8523;1.6594;0.7369;0.2618;-0.3141;0.0524;
34.8240;-2.5388;4.6491;-1.6551;0.2618;-0.3141;0.0524;
34.8810;-2.5388;4.6491;-1.6551;0.2618;-0.3141;0.0524;
34.8830;-2.5388;4.6491;-1.6551;0.2618;-0.3141;0.0524;
34.8880;-2.5388;4.6491;-1.6551;0.0698;-0.1920;0.1396;
34.8890;-4.6989;4.4626;-0.5230;0.0698;-0.1920;0.1396;
34.9500;-4.6989;4.4626;-0.5230;0.0698;-0.1920;0.1396;
34.9510;-4.6989;4.4626;-0.5230;0.0698;-0.1920;0.1396;
34.9530;-4.6989;4.4626;-0.5230;-0.1920;0.1920;0.2269;
34.9550;-2.0433;3.2567;-1.2129;-0.1920;0.1920;0.2269;
35.0130;-2.0433;3.2567;-1.2129;-0.1920;0.1920;0.2269;
35.0160;-2.0433;3.2567;-1.2129;-0.1920;0.1920;0.2269;
35.0170;-2.0433;3.2567;-1.2129;-0.4014;0.4363;-1.9722;
35.0170;7.3339;-0.3451;-4.7858;-0.4014;0.4363;-1.9722;
35.0790;7.3339;-0.3451;-4.7858;-0.4014;0.4363;-1.9722;
35.0810;7.3339;-0.3451;-4.7858;-0.4014;0.4363;-1.9722;
35.0820;7.3339;-0.3451;-4.7858;-0.5585;0.3316;-3.1415;
35.0820;-3.2121;-0.7403;3.9930;-0.5585;0.3316;-3.1415;
35.1450;-3.2121;-0.7403;3.9930;-0.5585;0.3316;-3.1415;
35.1470;-3.2121;-0.7403;3.9930;-0.5585;0.3316;-3.1415;
35.1480;-3.2121;-0.7403;3.9930;-0.7156;0.1047;-3.1764;
35.1490;-2.1157;-2.0082;0.1191;-0.7156;0.1047;-3.1764;
35.2110;-2.1157;-2.0082;0.1191;-0.7156;0.1047;-3.1764;
35.2160;-2.1157;-2.0082;0.1191;-0.7156;0.1047;-3.1764;
35.2170;-2.1157;-2.0082;0.1191;-0.7854;0.0349;-0.8203;
35.2180;-1.2132;1.5375;2.9600;-0.7854;0.0349;-0.8203;
35.3010;-1.2132;1.5375;2.9600;-0.7854;0.0349;-0.8203;
35.3120;-1.2132;1.5375;2.9600;-0.7854;0.0349;-0.8203;
35.3130;-1.2132;1.5375;2.9600;-0.7156;0.2094;0.2443;
35.3140;-0.8736;-1.4128;-3.1400;-0.7156;0.2094;0.2443;
35.3430;-0.8736;-1.4128;-3.1400;-0.7156;0.2094;0.2443;
35.3460;-0.8736;-1.4128;-3.1400;-0.7156;0.2094;0.2443;
35.3470;-0.8736;-1.4128;-3.1400;-0.4363;0.1222;0.1222;
35.3480;3.5414;2.6075;2.6759;-0.4363;0.1222;0.1222;
35.4080;3.5414;2.6075;2.6759;-0.4363;0.1222;0.1222;
35.4110;3.5414;2.6075;2.6759;-0.4363;0.1222;0.1222;
35.4120;3.5414;2.6075;2.6759;-0.0872;-0.1571;-0.1396;
35.4120;-2.7341;-0.4740;1.1685;-0.0872;-0.1571;-0.1396;
35.4750;-2.7341;-0.4740;1.1685;-0.0872;-0.1571;-0.1396;
35.4770;-2.7341;-0.4740;1.1685;-0.0872;-0.1571;-0.1396;
35.4780;-2.7341;-0.4740;1.1685;0.2618;-0.3316;-0.2792;
35.4780;-2.2211;0.1753;2.7808;0.2618;-0.3316;-0.2792;
35.5400;-2.2211;0.1753;2.7808;0.2618;-0.3316;-0.2792;
35.5430;-2.2211;0.1753;2.7808;0.2618;-0.3316;-0.2792;
35.5440;-2.2211;0.1753;2.7808;0.4189;-0.2443;-0.1222;
35.5440;2.8339;-0.9348;-0.6249;0.4189;-0.2443;-0.1222;
35.6070;2.8339;-0.9348;-0.6249;0.4189;-0.2443;-0.1222;
35.6090;2.8339;-0.9348;-0.6249;0.4189;-0.2443;-0.1222;
35.6100;2.8339;-0.9348;-0.6249;0.5236;-0.0524;0.0174;
35.6100;2.7049;-0.4005;3.0259;0.5236;-0.0524;0.0174;
35.6730;2.7049;-0.4005;3.0259;0.5236;-0.0524;0.0174;
35.6750;2.7049;-0.4005;3.0259;0.5236;-0.0524;0.0174;
35.6750;2.7049;-0.4005;3.0259;0.5585;0.1571;0.0524;
35.6760;3.6840;-1.9897;3.6416;0.5585;0.1571;0.0524;
35.7380;3.6840;-1.9897;3.6416;0.5585;0.1571;0.0524;
35.7400;3.6840;-1.9897;3.6416;0.5585;0.1571;0.0524;
35.7410;3.6840;-1.9897;3.6416;0.5061;0.2269;3.4906;
35.7420;-2.1412;-3.7455;-1.0189;0.5061;0.2269;3.4906;
35.8050;-2.1412;-3.7455;-1.0189;0.5061;0.2269;3.4906;
35.8070;-2.1412;-3.7455;-1.0189;0.5061;0.2269;3.4906;
35.8070;-2.1412;-3.7455;-1.0189;0.5061;0.0524;3.4382;
35.8080;-4.4475;-4.5572;0.1954;0.5061;0.0524;3.4382;
35.8700;-4.4475;-4.5572;0.1954;0.5061;0.0524;3.4382;
35.8720;-4.4475;-4.5572;0.1954;0.5061;0.0524;3.4382;
35.8730;-4.4475;-4.5572;0.1954;0.4887;-0.1745;3.3684;
35.8740;3.5519;-1.0154;-0.8810;0.4887;-0.1745;3.3684;
35.9380;3.5519;-1.0154;-0.8810;0.4887;-0.1745;3.3684;
35.9390;3.5519;-1.0154;-0.8810;0.4887;-0.1745;3.3684;
35.9390;3.5519;-1.0154;-0.8810;0.4712;-0.3840;1.0472;
35.9400;1.8667;3.2322;0.7615;0.4712;-0.3840;1.0472;
36.0030;1.8667;3.2322;0.7615;0.4712;-0.3840;1.0472;
36.0050;1.8667;3.2322;0.7615;0.4712;-0.3840;1.0472;
36.0060;1.8667;3.2322;0.7615;0.2443;-0.3840;0.2443;
36.0070;-4.9468;5.6609;-1.0399;0.2443;-0.3840;0.2443;
36.0690;-4.9468;5.6609;-1.0399;0.2443;-0.3840;0.2443;
36.0710;-4.9468;5.6609;-1.0399;0.2443;-0.3840;0.2443;
36.0720;-4.9468;5.6609;-1.0399;-0.0174;-0.1222;0.4014;
36.0730;-4.8968;2.6080;-1.0684;-0.0174;-0.1222;0.4014;
36.1370;-4.8968;2.6080;-1.0684;-0.0174;-0.1222;0.4014;
36.1530;-4.8968;2.6080;-1.0684;-0.0174;-0.1222;0.4014;
36.1560;-4.8968;2.6080;-1.0684;-0.3316;0.3840;0.3490;
36.1580;10.5195;-7.2678;-4.8410;-0.3316;0.3840;0.3490;
36.2030;10.5195;-7.2678;-4.8410;-0.3316;0.3840;0.3490;
36.2360;10.5195;-7.2678;-4.8410;-0.3316;0.3840;0.3490;
36.2370;10.5195;-7.2678;-4.8410;-0.4712;0.6458;-1.8500;
36.2380;-0.2720;6.6141;-2.8427;-0.4712;0.6458;-1.8500;
36.2720;-0.2720;6.6141;-2.8427;-0.4712;0.6458;-1.8500;
36.2730;-0.2720;6.6141;-2.8427;-0.4712;0.6458;-1.8500;
36.2750;-0.2720;6.6141;-2.8427;-0.5061;0.7156;-2.8972;
36.2760;-2.9973;-6.6910;-2.5208;-0.5061;0.7156;-2.8972;
36.3600;-2.9973;-6.6910;-2.5208;-0.5061;0.7156;-2.8972;
36.3660;-2.9973;-6.6910;-2.5208;-0.5061;0.7156;-2.8972;
36.3670;-2.9973;-6.6910;-2.5208;-0.5585;0.8028;-2.7924;
36.3680;-3.8094;4.2186;2.8400;-0.5585;0.8028;-2.7924;
36.4070;-3.8094;4.2186;2.8400;-0.5585;0.8028;-2.7924;
36.4080;-3.8094;4.2186;2.8400;-0.5759;0.8726;-1.3788;
36.4090;-1.9170;-1.2158;2.2850;-0.5759;0.8726;-1.3788;
36.4100;-1.9170;-1.2158;2.2850;-0.5759;0.8726;-1.3788;
36.4820;-1.9170;-1.2158;2.2850;-0.5759;0.8726;-1.3788;
36.4830;-1.9170;-1.2158;2.2850;-0.4887;0.8726;0.4014;
36.4930;1.3976;3.4392;2.6200;-0.4887;0.8726;0.4014;
36.5220;1.3976;3.4392;2.6200;-0.4887;0.8726;0.4014;
36.5320;1.3976;3.4392;2.6200;-0.4887;0.8726;0.4014;
36.5330;1.3976;3.4392;2.6200;-0.4887;0.8726;0.4014;
36.5340;1.3976;3.4392;2.6200;-0.2618;0.5236;0.2094;
36.5350;2.5507;2.2805;1.1205;-0.2618;0.5236;0.2094;
36.5980;2.5507;2.2805;1.1205;-0.2618;0.5236;0.2094;
36.5990;2.5507;2.2805;1.1205;-0.2618;0.5236;0.2094;
36.6000;2.5507;2.2805;1.1205;0.0349;-0.0872;-0.1745;
36.6010;0.1334;0.1210;-2.2817;0.0349;-0.0872;-0.1745;
36.6710;0.1334;0.1210;-2.2817;0.0349;-0.0872;-0.1745;
36.6720;0.1334;0.1210;-2.2817;0.2967;-0.6283;-0.3316;
36.6720;0.2269;0.2438;1.0121;0.2967;-0.6283;-0.3316;
36.6770;0.2269;0.2438;1.0121;0.2967;-0.6283;-0.3316;
36.7310;0.2269;0.2438;1.0121;0.2967;-0.6283;-0.3316;
36.7330;0.2269;0.2438;1.0121;0.2967;-0.6283;-0.3316;
36.7340;0.2269;0.2438;1.0121;0.3665;-0.7854;-0.1571;
