
time;ax;ay;az;wx;wy;wz;
0.0180;0.2164;0.3118;-0.2044;0.1222;-0.1571;-1.0646;
0.0200;0.2164;0.3118;-0.2044;0.1222;-0.1571;-1.0646;
0.0210;0.2164;0.3118;-0.2044;0.0872;-0.1222;-0.7854;
0.0220;-0.8508;0.5916;-0.4015;0.0872;-0.1222;-0.7854;
0.0630;-0.8508;0.5916;-0.4015;0.0872;-0.1222;-0.7854;
0.0830;-0.8508;0.5916;-0.4015;0.0872;-0.1222;-0.7854;
0.0860;-0.8508;0.5916;-0.4015;0.0872;-0.1222;-0.7854;
0.0870;-0.8508;0.5916;-0.4015;0.0698;-0.0872;-0.6283;
0.0870;-0.3863;0.0202;1.6316;0.0698;-0.0872;-0.6283;
0.1490;-0.3863;0.0202;1.6316;0.0698;-0.0872;-0.6283;
0.1520;-0.3863;0.0202;1.6316;0.0698;-0.0872;-0.6283;
0.1520;-0.3863;0.0202;1.6316;0.0349;-0.0524;-0.5061;
0.1530;-1.4955;0.1400;-2.4188;0.0349;-0.0524;-0.5061;
0.1830;-1.4955;0.1400;-2.4188;0.0349;-0.0524;-0.5061;
0.2150;-1.4955;0.1400;-2.4188;0.0349;-0.0524;-0.5061;
0.2180;-1.4955;0.1400;-2.4188;0.0349;-0.0524;-0.5061;
0.2190;-1.4955;0.1400;-2.4188;0.0174;-0.0174;-0.4189;
0.2190;-0.0373;0.4650;-1.1287;0.0174;-0.0174;-0.4189;
0.2810;-0.0373;0.4650;-1.1287;0.0174;-0.0174;-0.4189;
0.2840;-0.0373;0.4650;-1.1287;0.0174;-0.0174;-0.4189;
0.2850;-0.0373;0.4650;-1.1287;0.0349;0.0000;-0.4538;
0.2850;-0.4347;0.6537;1.2409;0.0349;0.0000;-0.4538;
0.3630;-0.4347;0.6537;1.2409;0.0349;0.0000;-0.4538;
0.3640;-0.4347;0.6537;1.2409;0.0698;0.0000;-0.4887;
0.3640;-0.6830;0.6707;-0.5614;0.0698;0.0000;-0.4887;
0.3670;-0.6830;0.6707;-0.5614;0.0698;0.0000;-0.4887;
0.3700;-0.6830;0.6707;-0.5614;0.0698;0.0000;-0.4887;
0.4130;-0.6830;0.6707;-0.5614;0.0698;0.0000;-0.4887;
0.4160;-0.6830;0.6707;-0.5614;0.0698;0.0000;-0.4887;
0.4170;-0.6830;0.6707;-0.5614;0.0872;-0.0349;-0.4712;
0.4180;-0.0452;0.4838;-0.0647;0.0872;-0.0349;-0.4712;
0.4790;-0.0452;0.4838;-0.0647;0.0872;-0.0349;-0.4712;
0.4820;-0.0452;0.4838;-0.0647;0.0872;-0.0349;-0.4712;
0.4820;-0.0452;0.4838;-0.0647;0.1222;-0.0872;-0.4189;
0.4830;0.3251;0.4260;-2.2992;0.1222;-0.0872;-0.4189;
0.4830;0.3251;0.4260;-2.2992;0.1222;-0.0872;-0.4189;
0.5450;0.3251;0.4260;-2.2992;0.1222;-0.0872;-0.4189;
0.5480;0.3251;0.4260;-2.2992;0.1222;-0.0872;-0.4189;
0.5480;0.3251;0.4260;-2.2992;0.1396;-0.1222;-0.3840;
0.5490;0.3799;0.6936;-0.6115;0.1396;-0.1222;-0.3840;
0.6030;0.3799;0.6936;-0.6115;0.1396;-0.1222;-0.3840;
0.6110;0.3799;0.6936;-0.6115;0.1396;-0.1222;-0.3840;
0.6140;0.3799;0.6936;-0.6115;0.1396;-0.1222;-0.3840;
0.6140;0.3799;0.6936;-0.6115;0.1396;-0.1222;-0.3490;
0.6150;0.8089;0.0137;0.3965;0.1396;-0.1222;-0.3490;
0.6770;0.8089;0.0137;0.3965;0.1396;-0.1222;-0.3490;
0.6800;0.8089;0.0137;0.3965;0.1396;-0.1222;-0.3490;
0.6800;0.8089;0.0137;0.3965;0.1222;-0.1222;-0.1222;
0.6810;1.2458;0.3957;-0.5861;0.1222;-0.1222;-0.1222;
0.7430;1.2458;0.3957;-0.5861;0.1222;-0.1222;-0.1222;
0.7460;1.2458;0.3957;-0.5861;0.1222;-0.1222;-0.1222;
0.7460;1.2458;0.3957;-0.5861;0.1222;-0.1222;0.0698;
0.7470;1.0717;0.6997;0.1737;0.1222;-0.1222;0.0698;
0.8090;1.0717;0.6997;0.1737;0.1222;-0.1222;0.0698;
0.8120;1.0717;0.6997;0.1737;0.1222;-0.1222;0.0698;
0.8120;1.0717;0.6997;0.1737;0.1047;-0.1222;0.2269;
0.8130;1.8688;0.5816;-0.7322;0.1047;-0.1222;0.2269;
0.8430;1.8688;0.5816;-0.7322;0.1047;-0.1222;0.2269;
0.8750;1.8688;0.5816;-0.7322;0.1047;-0.1222;0.2269;
0.8810;1.8688;0.5816;-0.7322;0.1047;-0.1222;0.2269;
0.8820;1.8688;0.5816;-0.7322;0.0698;-0.1396;0.4189;
0.8830;1.6113;0.5016;0.0229;0.0698;-0.1396;0.4189;
0.9410;1.6113;0.5016;0.0229;0.0698;-0.1396;0.4189;
0.9460;1.6113;0.5016;0.0229;0.0698;-0.1396;0.4189;
0.9470;1.6113;0.5016;0.0229;0.0524;-0.1571;0.5759;
0.9480;0.3162;0.0835;-0.0557;0.0524;-0.1571;0.5759;
1.0100;0.3162;0.0835;-0.0557;0.0524;-0.1571;0.5759;
1.0110;0.3162;0.0835;-0.0557;0.0524;-0.1571;0.7156;
1.0110;2.3179;0.8977;-0.1927;0.0524;-0.1571;0.7156;
1.0120;2.3179;0.8977;-0.1927;0.0524;-0.1571;0.7156;
1.0750;2.3179;0.8977;-0.1927;0.0524;-0.1571;0.7156;
1.0760;2.3179;0.8977;-0.1927;0.0524;-0.1571;0.7156;
1.0760;2.3179;0.8977;-0.1927;0.0524;-0.1571;0.7679;
1.0770;1.6703;1.1112;0.6381;0.0524;-0.1571;0.7679;
4.0240;1.6703;1.1112;0.6381;0.0524;-0.1571;0.7679;
4.0240;1.6703;1.1112;0.6381;0.0872;-0.1222;0.6108;
4.0250;-0.2426;-1.9971;0.4760;0.0872;-0.1222;0.6108;
4.0530;-0.2426;-1.9971;0.4760;0.0872;-0.1222;0.6108;
4.0890;-0.2426;-1.9971;0.4760;0.0872;-0.1222;0.6108;
4.0900;-0.2426;-1.9971;0.4760;0.0349;-0.0698;0.6108;
4.0910;-0.6064;-2.1515;1.2659;0.0349;-0.0698;0.6108;
4.1570;-0.6064;-2.1515;1.2659;0.0349;-0.0698;0.6108;
4.1570;-0.6064;-2.1515;1.2659;-0.1396;-0.0174;0.5410;
4.1580;-0.5431;-2.1794;0.2828;-0.1396;-0.0174;0.5410;
4.1730;-0.5431;-2.1794;0.2828;-0.1396;-0.0174;0.5410;
4.2210;-0.5431;-2.1794;0.2828;-0.1396;-0.0174;0.5410;
4.2220;-0.5431;-2.1794;0.2828;-0.4014;0.0174;0.3141;
4.2240;-0.1994;-0.8493;-3.9277;-0.4014;0.0174;0.3141;
4.2870;-0.1994;-0.8493;-3.9277;-0.4014;0.0174;0.3141;
4.2880;-0.1994;-0.8493;-3.9277;-0.7156;0.0698;-0.4014;
4.2880;-0.6662;-1.6025;1.4941;-0.7156;0.0698;-0.4014;
4.2920;-0.6662;-1.6025;1.4941;-0.7156;0.0698;-0.4014;
4.3510;-0.6662;-1.6025;1.4941;-0.7156;0.0698;-0.4014;
4.3540;-0.6662;-1.6025;1.4941;-0.7156;0.0698;-0.4014;
4.3550;-0.6662;-1.6025;1.4941;-0.8901;0.0872;-1.3962;
4.3550;-2.4657;-1.4470;-0.7590;-0.8901;0.0872;-1.3962;
4.4170;-2.4657;-1.4470;-0.7590;-0.8901;0.0872;-1.3962;
4.4190;-2.4657;-1.4470;-0.7590;-0.8901;0.0872;-1.3962;
4.4190;-2.4657;-1.4470;-0.7590;-0.8552;0.0872;-1.8500;
4.4200;-2.5879;0.1248;0.7589;-0.8552;0.0872;-1.8500;
4.4720;-2.5879;0.1248;0.7589;-0.8552;0.0872;-1.8500;
4.4830;-2.5879;0.1248;0.7589;-0.8552;0.0872;-1.8500;
4.4850;-2.5879;0.1248;0.7589;-0.8552;0.0872;-1.8500;
4.4860;-2.5879;0.1248;0.7589;-0.6806;0.1222;-2.0769;
4.4860;-3.1489;0.5540;-0.9154;-0.6806;0.1222;-2.0769;
4.5480;-3.1489;0.5540;-0.9154;-0.6806;0.1222;-2.0769;
4.5510;-3.1489;0.5540;-0.9154;-0.6806;0.1222;-2.0769;
4.5510;-3.1489;0.5540;-0.9154;-0.3665;0.2967;-2.0594;
4.5520;-1.5054;0.3807;0.7643;-0.3665;0.2967;-2.0594;
4.5930;-1.5054;0.3807;0.7643;-0.3665;0.2967;-2.0594;
4.6140;-1.5054;0.3807;0.7643;-0.3665;0.2967;-2.0594;
4.6170;-1.5054;0.3807;0.7643;-0.3665;0.2967;-2.0594;
4.6170;-1.5054;0.3807;0.7643;-0.0872;0.4887;-1.6755;
4.6180;-0.9225;-0.2165;-0.3838;-0.0872;0.4887;-1.6755;
4.6800;-0.9225;-0.2165;-0.3838;-0.0872;0.4887;-1.6755;
4.6830;-0.9225;-0.2165;-0.3838;-0.0872;0.4887;-1.6755;
4.6830;-0.9225;-0.2165;-0.3838;0.1571;0.6632;-0.9075;
4.6840;-1.2078;-0.3867;-0.4894;0.1571;0.6632;-0.9075;
4.7120;-1.2078;-0.3867;-0.4894;0.1571;0.6632;-0.9075;
4.7460;-1.2078;-0.3867;-0.4894;0.1571;0.6632;-0.9075;
4.7490;-1.2078;-0.3867;-0.4894;0.1571;0.6632;-0.9075;
4.7500;-1.2078;-0.3867;-0.4894;0.3490;0.6981;0.1920;
4.7500;0.8436;-1.2985;-1.5699;0.3490;0.6981;0.1920;
4.8150;0.8436;-1.2985;-1.5699;0.3490;0.6981;0.1920;
4.8160;0.8436;-1.2985;-1.5699;0.3316;0.5410;0.6283;
4.8160;0.9224;-2.2427;0.8261;0.3316;0.5410;0.6283;
4.8230;0.9224;-2.2427;0.8261;0.3316;0.5410;0.6283;
4.8330;0.9224;-2.2427;0.8261;0.3316;0.5410;0.6283;
4.8780;0.9224;-2.2427;0.8261;0.3316;0.5410;0.6283;
4.8810;0.9224;-2.2427;0.8261;0.3316;0.5410;0.6283;
4.8820;0.9224;-2.2427;0.8261;0.2269;0.2967;0.6632;
4.8820;1.8158;-1.9682;0.6857;0.2269;0.2967;0.6632;
4.9470;1.8158;-1.9682;0.6857;0.2269;0.2967;0.6632;
4.9480;1.8158;-1.9682;0.6857;0.2269;0.2967;0.6632;
4.9480;1.8158;-1.9682;0.6857;0.0524;0.0349;0.5410;
4.9490;3.0445;-2.9655;-1.7700;0.0524;0.0349;0.5410;
4.9520;3.0445;-2.9655;-1.7700;0.0524;0.0349;0.5410;
5.0100;3.0445;-2.9655;-1.7700;0.0524;0.0349;0.5410;
5.0130;3.0445;-2.9655;-1.7700;0.0524;0.0349;0.5410;
5.0130;3.0445;-2.9655;-1.7700;-0.2618;-0.2792;0.5410;
5.0140;4.5546;-2.0505;0.5284;-0.2618;-0.2792;0.5410;
5.0760;4.5546;-2.0505;0.5284;-0.2618;-0.2792;0.5410;
5.0790;4.5546;-2.0505;0.5284;-0.2618;-0.2792;0.5410;
5.0790;4.5546;-2.0505;0.5284;-0.5410;-0.4887;1.0646;
5.0800;6.8076;-3.6358;-2.5774;-0.5410;-0.4887;1.0646;
5.1320;6.8076;-3.6358;-2.5774;-0.5410;-0.4887;1.0646;
5.1420;6.8076;-3.6358;-2.5774;-0.5410;-0.4887;1.0646;
5.1450;6.8076;-3.6358;-2.5774;-0.5410;-0.4887;1.0646;
5.1460;6.8076;-3.6358;-2.5774;-0.6108;-0.5934;3.2462;
5.1460;3.8745;-2.4865;1.9383;-0.6108;-0.5934;3.2462;
5.2080;3.8745;-2.4865;1.9383;-0.6108;-0.5934;3.2462;
5.2110;3.8745;-2.4865;1.9383;-0.6108;-0.5934;3.2462;
5.2110;3.8745;-2.4865;1.9383;-0.2094;-0.8203;8.0457;
5.2120;5.2482;-3.1478;-1.3612;-0.2094;-0.8203;8.0457;
5.2520;5.2482;-3.1478;-1.3612;-0.2094;-0.8203;8.0457;
5.2740;5.2482;-3.1478;-1.3612;-0.2094;-0.8203;8.0457;
5.2770;5.2482;-3.1478;-1.3612;-0.2094;-0.8203;8.0457;
5.2770;5.2482;-3.1478;-1.3612;0.0698;-1.1344;8.6042;
5.2780;4.3371;-3.3431;0.0354;0.0698;-1.1344;8.6042;
5.3400;4.3371;-3.3431;0.0354;0.0698;-1.1344;8.6042;
5.3430;4.3371;-3.3431;0.0354;0.0698;-1.1344;8.6042;
5.3430;4.3371;-3.3431;0.0354;0.1222;-1.4137;6.8764;
5.3440;2.0203;-2.9876;0.0105;0.1222;-1.4137;6.8764;
5.3720;2.0203;-2.9876;0.0105;0.1222;-1.4137;6.8764;
5.4060;2.0203;-2.9876;0.0105;0.1222;-1.4137;6.8764;
5.4090;2.0203;-2.9876;0.0105;0.1222;-1.4137;6.8764;
5.4090;2.0203;-2.9876;0.0105;-0.2618;-1.4835;2.8273;
5.4100;4.1215;-4.3960;-1.4016;-0.2618;-1.4835;2.8273;
5.4720;4.1215;-4.3960;-1.4016;-0.2618;-1.4835;2.8273;
5.4750;4.1215;-4.3960;-1.4016;-0.2618;-1.4835;2.8273;
5.4760;4.1215;-4.3960;-1.4016;-0.7330;-1.0297;0.1222;
5.4760;4.4686;-4.3244;-2.9521;-0.7330;-1.0297;0.1222;
5.4920;4.4686;-4.3244;-2.9521;-0.7330;-1.0297;0.1222;
5.5380;4.4686;-4.3244;-2.9521;-0.7330;-1.0297;0.1222;
5.5410;4.4686;-4.3244;-2.9521;-0.7330;-1.0297;0.1222;
5.5410;4.4686;-4.3244;-2.9521;-0.8377;-0.6458;-0.3141;
5.5420;3.8610;-3.0996;-2.2321;-0.8377;-0.6458;-0.3141;
5.6040;3.8610;-3.0996;-2.2321;-0.8377;-0.6458;-0.3141;
5.6070;3.8610;-3.0996;-2.2321;-0.8377;-0.6458;-0.3141;
5.6070;3.8610;-3.0996;-2.2321;-0.8203;-0.4189;-0.2618;
5.6080;3.3721;-2.5948;-2.9597;-0.8203;-0.4189;-0.2618;
5.6120;3.3721;-2.5948;-2.9597;-0.8203;-0.4189;-0.2618;
5.6700;3.3721;-2.5948;-2.9597;-0.8203;-0.4189;-0.2618;
5.6730;3.3721;-2.5948;-2.9597;-0.8203;-0.4189;-0.2618;
5.6730;3.3721;-2.5948;-2.9597;-0.6806;-0.4014;0.0349;
5.6740;3.9076;-3.3502;-3.4658;-0.6806;-0.4014;0.0349;
5.7360;3.9076;-3.3502;-3.4658;-0.6806;-0.4014;0.0349;
5.7390;3.9076;-3.3502;-3.4658;-0.6806;-0.4014;0.0349;
5.7390;3.9076;-3.3502;-3.4658;-0.5934;-0.5061;0.2269;
5.7400;1.0779;-3.1531;-1.7559;-0.5934;-0.5061;0.2269;
5.8020;1.0779;-3.1531;-1.7559;-0.5934;-0.5061;0.2269;
5.8050;1.0779;-3.1531;-1.7559;-0.5934;-0.5061;0.2269;
5.8050;1.0779;-3.1531;-1.7559;-0.5410;-0.6283;0.2443;
5.8060;1.4356;-6.9216;-0.7870;-0.5410;-0.6283;0.2443;
5.8680;1.4356;-6.9216;-0.7870;-0.5410;-0.6283;0.2443;
5.8710;1.4356;-6.9216;-0.7870;-0.5410;-0.6283;0.2443;
5.8710;1.4356;-6.9216;-0.7870;-0.4887;-0.6981;0.2618;
5.8720;0.5123;-3.4279;-7.2445;-0.4887;-0.6981;0.2618;
5.9340;0.5123;-3.4279;-7.2445;-0.4887;-0.6981;0.2618;
5.9370;0.5123;-3.4279;-7.2445;-0.4887;-0.6981;0.2618;
5.9370;0.5123;-3.4279;-7.2445;-0.4189;-0.7330;0.4538;
5.9380;-3.4542;-2.0654;-5.5626;-0.4189;-0.7330;0.4538;
6.0010;-3.4542;-2.0654;-5.5626;-0.4189;-0.7330;0.4538;
6.0030;-3.4542;-2.0654;-5.5626;-0.4189;-0.7330;0.4538;
6.0030;-3.4542;-2.0654;-5.5626;-0.3316;-0.7505;0.7854;
6.0040;0.9937;-14.6071;-0.1455;-0.3316;-0.7505;0.7854;
6.0670;0.9937;-14.6071;-0.1455;-0.3316;-0.7505;0.7854;
6.0690;0.9937;-14.6071;-0.1455;-0.3316;-0.7505;0.7854;
6.0700;0.9937;-14.6071;-0.1455;-0.2094;-0.8552;1.2042;
6.0700;-4.4883;-0.5210;-5.9787;-0.2094;-0.8552;1.2042;
6.1520;-4.4883;-0.5210;-5.9787;-0.2094;-0.8552;1.2042;
6.1530;-4.4883;-0.5210;-5.9787;-0.0698;-1.1519;1.7453;
6.1530;-0.0813;-3.3004;-6.7108;-0.0698;-1.1519;1.7453;
6.1540;-0.0813;-3.3004;-6.7108;-0.0698;-1.1519;1.7453;
6.2030;-0.0813;-3.3004;-6.7108;-0.0698;-1.1519;1.7453;
6.2030;-0.0813;-3.3004;-6.7108;-0.0698;-1.1519;1.7453;
6.2040;-0.0813;-3.3004;-6.7108;0.0174;-1.4137;2.1641;
6.2050;-3.2348;-2.3191;-0.8736;0.0174;-1.4137;2.1641;
6.2760;-3.2348;-2.3191;-0.8736;0.0174;-1.4137;2.1641;
6.2770;-3.2348;-2.3191;-0.8736;0.0000;-1.5009;2.2514;
6.2780;-1.4960;-2.7818;-0.1389;0.0000;-1.5009;2.2514;
6.2790;-1.4960;-2.7818;-0.1389;0.0000;-1.5009;2.2514;
6.3620;-1.4960;-2.7818;-0.1389;0.0000;-1.5009;2.2514;
6.3620;-1.4960;-2.7818;-0.1389;-0.0872;-1.2915;1.9722;
6.3630;0.0132;-3.0690;-0.8818;-0.0872;-1.2915;1.9722;
6.3630;0.0132;-3.0690;-0.8818;-0.0872;-1.2915;1.9722;
6.3990;0.0132;-3.0690;-0.8818;-0.0872;-1.2915;1.9722;
6.4000;0.0132;-3.0690;-0.8818;-0.1920;-0.8377;1.3613;
6.4000;-0.9224;-1.8280;-1.5066;-0.1920;-0.8377;1.3613;
6.4020;-0.9224;-1.8280;-1.5066;-0.1920;-0.8377;1.3613;
6.4620;-0.9224;-1.8280;-1.5066;-0.1920;-0.8377;1.3613;
6.4650;-0.9224;-1.8280;-1.5066;-0.1920;-0.8377;1.3613;
6.4650;-0.9224;-1.8280;-1.5066;-0.1571;-0.1222;0.6108;
6.4660;-2.1172;-1.6434;-4.9930;-0.1571;-0.1222;0.6108;
6.5290;-2.1172;-1.6434;-4.9930;-0.1571;-0.1222;0.6108;
6.5310;-2.1172;-1.6434;-4.9930;-0.1571;-0.1222;0.6108;
6.5320;-2.1172;-1.6434;-4.9930;-0.0524;0.3490;0.1571;
6.5330;1.6665;-5.7352;3.6306;-0.0524;0.3490;0.1571;
6.5940;1.6665;-5.7352;3.6306;-0.0524;0.3490;0.1571;
6.5970;1.6665;-5.7352;3.6306;-0.0524;0.3490;0.1571;
6.5970;1.6665;-5.7352;3.6306;-0.0174;0.5934;-0.1222;
6.5980;-0.7602;-0.3189;-6.0555;-0.0174;0.5934;-0.1222;
6.6610;-0.7602;-0.3189;-6.0555;-0.0174;0.5934;-0.1222;
6.6630;-0.7602;-0.3189;-6.0555;-0.0174;0.5934;-0.1222;
6.6640;-0.7602;-0.3189;-6.0555;-0.0349;0.5934;-0.2792;
6.6650;3.3849;0.8201;0.5549;-0.0349;0.5934;-0.2792;
6.7270;3.3849;0.8201;0.5549;-0.0349;0.5934;-0.2792;
6.7290;3.3849;0.8201;0.5549;-0.0349;0.5934;-0.2792;
6.7300;3.3849;0.8201;0.5549;-0.1745;0.3316;-0.2967;
6.7300;2.1020;-0.8431;0.3043;-0.1745;0.3316;-0.2967;
6.7940;2.1020;-0.8431;0.3043;-0.1745;0.3316;-0.2967;
6.7950;2.1020;-0.8431;0.3043;-0.1745;0.3316;-0.2967;
6.7970;2.1020;-0.8431;0.3043;-0.3316;0.3316;-0.4363;
6.7970;0.9769;1.2362;-3.7649;-0.3316;0.3316;-0.4363;
6.8590;0.9769;1.2362;-3.7649;-0.3316;0.3316;-0.4363;
6.8620;0.9769;1.2362;-3.7649;-0.3316;0.3316;-0.4363;
6.8630;0.9769;1.2362;-3.7649;-0.5410;0.4712;-0.7156;
6.8640;3.7767;2.0787;-4.4291;-0.5410;0.4712;-0.7156;
6.9440;3.7767;2.0787;-4.4291;-0.5410;0.4712;-0.7156;
6.9450;3.7767;2.0787;-4.4291;-0.6806;0.5061;-0.9948;
6.9480;2.4477;2.1619;-3.1150;-0.6806;0.5061;-0.9948;
6.9490;2.4477;2.1619;-3.1150;-0.6806;0.5061;-0.9948;
6.9920;2.4477;2.1619;-3.1150;-0.6806;0.5061;-0.9948;
6.9940;2.4477;2.1619;-3.1150;-0.6806;0.5061;-0.9948;
6.9950;2.4477;2.1619;-3.1150;-0.6981;0.3490;-1.0995;
6.9970;1.2863;-0.7731;-5.3776;-0.6981;0.3490;-1.0995;
7.0570;1.2863;-0.7731;-5.3776;-0.6981;0.3490;-1.0995;
7.0630;1.2863;-0.7731;-5.3776;-0.6981;0.3490;-1.0995;
7.0640;1.2863;-0.7731;-5.3776;-0.6458;-0.0524;-1.0821;
7.0730;4.6747;-0.2609;3.3050;-0.6458;-0.0524;-1.0821;
7.1230;4.6747;-0.2609;3.3050;-0.6458;-0.0524;-1.0821;
7.1250;4.6747;-0.2609;3.3050;-0.6458;-0.0524;-1.0821;
7.1260;4.6747;-0.2609;3.3050;-0.5410;-0.5061;-0.9075;
7.1270;1.1996;-0.6450;-2.4037;-0.5410;-0.5061;-0.9075;
7.1900;1.1996;-0.6450;-2.4037;-0.5410;-0.5061;-0.9075;
7.1920;1.1996;-0.6450;-2.4037;-0.5410;-0.5061;-0.9075;
7.1930;1.1996;-0.6450;-2.4037;-0.4014;-0.8552;-0.7505;
7.1940;7.3288;-1.5228;-2.3562;-0.4014;-0.8552;-0.7505;
7.2550;7.3288;-1.5228;-2.3562;-0.4014;-0.8552;-0.7505;
7.2580;7.3288;-1.5228;-2.3562;-0.4014;-0.8552;-0.7505;
7.2590;7.3288;-1.5228;-2.3562;-0.2094;-0.9075;-0.5061;
7.2600;6.6411;-1.3230;-8.0799;-0.2094;-0.9075;-0.5061;
7.3210;6.6411;-1.3230;-8.0799;-0.2094;-0.9075;-0.5061;
7.3230;6.6411;-1.3230;-8.0799;-0.2094;-0.9075;-0.5061;
7.3250;6.6411;-1.3230;-8.0799;-0.0174;-0.7505;-0.2967;
7.3260;-1.2761;-2.0988;1.3293;-0.0174;-0.7505;-0.2967;
7.3880;-1.2761;-2.0988;1.3293;-0.0174;-0.7505;-0.2967;
7.3900;-1.2761;-2.0988;1.3293;-0.0174;-0.7505;-0.2967;
7.3920;-1.2761;-2.0988;1.3293;0.0872;-0.5061;-0.1745;
7.3940;-2.7933;2.2490;2.8812;0.0872;-0.5061;-0.1745;
7.4530;-2.7933;2.2490;2.8812;0.0872;-0.5061;-0.1745;
7.4550;-2.7933;2.2490;2.8812;0.0872;-0.5061;-0.1745;
7.4560;-2.7933;2.2490;2.8812;0.1047;-0.4014;-0.1222;
7.4580;-1.3879;5.4309;-2.7943;0.1047;-0.4014;-0.1222;
7.5190;-1.3879;5.4309;-2.7943;0.1047;-0.4014;-0.1222;
7.5220;-1.3879;5.4309;-2.7943;0.1047;-0.4014;-0.1222;
7.5240;-1.3879;5.4309;-2.7943;0.1047;-0.3840;-0.0349;
7.5250;-2.0722;2.4713;-0.6978;0.1047;-0.3840;-0.0349;
7.5850;-2.0722;2.4713;-0.6978;0.1047;-0.3840;-0.0349;
7.6010;-2.0722;2.4713;-0.6978;0.1047;-0.3840;-0.0349;
7.6050;-2.0722;2.4713;-0.6978;0.1920;-0.3141;0.1047;
7.6200;-1.7119;-3.9722;12.3843;0.1920;-0.3141;0.1047;
7.6510;-1.7119;-3.9722;12.3843;0.1920;-0.3141;0.1047;
7.6530;-1.7119;-3.9722;12.3843;0.1920;-0.3141;0.1047;
7.6550;-1.7119;-3.9722;12.3843;0.2443;-0.1396;0.2094;
7.6560;-1.8317;-2.2275;7.8961;0.2443;-0.1396;0.2094;
7.7170;-1.8317;-2.2275;7.8961;0.2443;-0.1396;0.2094;
7.7190;-1.8317;-2.2275;7.8961;0.2443;-0.1396;0.2094;
7.7200;-1.8317;-2.2275;7.8961;0.3490;0.1047;0.2967;
7.7210;-0.9476;-1.3853;0.1908;0.3490;0.1047;0.2967;
7.7820;-0.9476;-1.3853;0.1908;0.3490;0.1047;0.2967;
7.7850;-0.9476;-1.3853;0.1908;0.3490;0.1047;0.2967;
7.7860;-0.9476;-1.3853;0.1908;0.6806;0.5934;0.4887;
7.7870;-0.7464;-0.9225;-6.8145;0.6806;0.5934;0.4887;
7.8490;-0.7464;-0.9225;-6.8145;0.6806;0.5934;0.4887;
7.8510;-0.7464;-0.9225;-6.8145;0.6806;0.5934;0.4887;
7.8520;-0.7464;-0.9225;-6.8145;1.0821;0.8377;0.7505;
7.8530;1.9415;2.4935;-3.2462;1.0821;0.8377;0.7505;
7.9150;1.9415;2.4935;-3.2462;1.0821;0.8377;0.7505;
7.9170;1.9415;2.4935;-3.2462;1.0821;0.8377;0.7505;
7.9180;1.9415;2.4935;-3.2462;1.1344;0.6806;0.8726;
7.9190;2.9024;1.1980;2.6378;1.1344;0.6806;0.8726;
7.9840;2.9024;1.1980;2.6378;1.1344;0.6806;0.8726;
7.9850;2.9024;1.1980;2.6378;1.1344;0.6806;0.8726;
7.9860;2.9024;1.1980;2.6378;0.7505;0.0524;0.7854;
7.9870;-0.6257;0.1348;2.3213;0.7505;0.0524;0.7854;
8.0470;-0.6257;0.1348;2.3213;0.7505;0.0524;0.7854;
8.0490;-0.6257;0.1348;2.3213;0.7505;0.0524;0.7854;
8.0500;-0.6257;0.1348;2.3213;0.0698;-0.5410;0.3840;
8.0520;-2.8096;1.9734;-4.0606;0.0698;-0.5410;0.3840;
8.1170;-2.8096;1.9734;-4.0606;0.0698;-0.5410;0.3840;
8.1190;-2.8096;1.9734;-4.0606;-0.4014;-0.6806;-0.1047;
8.1200;0.4248;-0.7996;-3.4949;-0.4014;-0.6806;-0.1047;
8.1210;0.4248;-0.7996;-3.4949;-0.4014;-0.6806;-0.1047;
8.1790;0.4248;-0.7996;-3.4949;-0.4014;-0.6806;-0.1047;
8.1970;0.4248;-0.7996;-3.4949;-0.4014;-0.6806;-0.1047;
8.2000;0.4248;-0.7996;-3.4949;-0.5759;-0.5236;-0.6283;
8.2140;3.7523;-0.1005;3.2828;-0.5759;-0.5236;-0.6283;
8.2470;3.7523;-0.1005;3.2828;-0.5759;-0.5236;-0.6283;
8.2530;3.7523;-0.1005;3.2828;-0.5759;-0.5236;-0.6283;
8.2540;3.7523;-0.1005;3.2828;-0.4363;-0.5061;-0.6283;
8.2550;2.2024;-1.0279;-0.7614;-0.4363;-0.5061;-0.6283;
8.3100;2.2024;-1.0279;-0.7614;-0.4363;-0.5061;-0.6283;
8.3130;2.2024;-1.0279;-0.7614;-0.4363;-0.5061;-0.6283;
8.3150;2.2024;-1.0279;-0.7614;-0.2618;-0.5934;-0.5061;
8.3240;5.9184;-2.6761;-2.5965;-0.2618;-0.5934;-0.5061;
8.3760;5.9184;-2.6761;-2.5965;-0.2618;-0.5934;-0.5061;
8.3790;5.9184;-2.6761;-2.5965;-0.2618;-0.5934;-0.5061;
8.3800;5.9184;-2.6761;-2.5965;-0.1047;-0.5759;-0.3490;
8.3810;1.1490;-3.8907;-7.9178;-0.1047;-0.5759;-0.3490;
8.4500;1.1490;-3.8907;-7.9178;-0.1047;-0.5759;-0.3490;
8.4510;1.1490;-3.8907;-7.9178;-0.0349;-0.3490;-0.3665;
8.4540;-4.7887;-3.4700;-2.5072;-0.0349;-0.3490;-0.3665;
8.4550;-4.7887;-3.4700;-2.5072;-0.0349;-0.3490;-0.3665;
8.5080;-4.7887;-3.4700;-2.5072;-0.0349;-0.3490;-0.3665;
8.5110;-4.7887;-3.4700;-2.5072;-0.0349;-0.3490;-0.3665;
8.5110;-4.7887;-3.4700;-2.5072;-0.0349;-0.2094;-0.3665;
8.5120;-1.5975;4.8702;0.8813;-0.0349;-0.2094;-0.3665;
8.5760;-1.5975;4.8702;0.8813;-0.0349;-0.2094;-0.3665;
8.5790;-1.5975;4.8702;0.8813;-0.0349;-0.2094;-0.3665;
8.5800;-1.5975;4.8702;0.8813;-1.6580;-0.2967;-2.9844;
8.5800;-1.0419;4.0125;-3.0811;-1.6580;-0.2967;-2.9844;
8.6410;-1.0419;4.0125;-3.0811;-1.6580;-0.2967;-2.9844;
8.6430;-1.0419;4.0125;-3.0811;-1.6580;-0.2967;-2.9844;
8.6440;-1.0419;4.0125;-3.0811;-2.4434;-0.1920;-4.3283;
8.6450;-2.0586;3.6697;-3.1747;-2.4434;-0.1920;-4.3283;
8.7090;-2.0586;3.6697;-3.1747;-2.4434;-0.1920;-4.3283;
8.7110;-2.0586;3.6697;-3.1747;-2.4434;-0.1920;-4.3283;
8.7140;-2.0586;3.6697;-3.1747;-2.2863;0.0349;-4.3632;
8.7150;-1.5678;-5.3657;15.5957;-2.2863;0.0349;-4.3632;
8.7740;-1.5678;-5.3657;15.5957;-2.2863;0.0349;-4.3632;
8.7750;-1.5678;-5.3657;15.5957;-2.2863;0.0349;-4.3632;
8.7770;-1.5678;-5.3657;15.5957;-1.3089;0.4712;-3.0193;
8.7780;-6.2362;-4.7086;7.9139;-1.3089;0.4712;-3.0193;
8.8480;-6.2362;-4.7086;7.9139;-1.3089;0.4712;-3.0193;
8.8500;-6.2362;-4.7086;7.9139;1.0472;0.5061;0.9424;
8.8630;-1.2291;-0.3201;0.7200;1.0472;0.5061;0.9424;
8.8640;-1.2291;-0.3201;0.7200;1.0472;0.5061;0.9424;
8.9050;-1.2291;-0.3201;0.7200;1.0472;0.5061;0.9424;
8.9070;-1.2291;-0.3201;0.7200;1.0472;0.5061;0.9424;
8.9080;-1.2291;-0.3201;0.7200;2.4957;0.4538;4.0665;
8.9090;-0.2448;2.6082;-5.2530;2.4957;0.4538;4.0665;
8.9710;-0.2448;2.6082;-5.2530;2.4957;0.4538;4.0665;
8.9740;-0.2448;2.6082;-5.2530;2.4957;0.4538;4.0665;
8.9750;-0.2448;2.6082;-5.2530;2.9321;0.4014;4.6250;
8.9760;5.0363;2.6017;-3.9290;2.9321;0.4014;4.6250;
9.0370;5.0363;2.6017;-3.9290;2.9321;0.4014;4.6250;
9.0390;5.0363;2.6017;-3.9290;2.9321;0.4014;4.6250;
9.0400;5.0363;2.6017;-3.9290;2.3387;0.3316;3.7174;
9.0410;-0.4362;0.4741;4.5869;2.3387;0.3316;3.7174;
9.1030;-0.4362;0.4741;4.5869;2.3387;0.3316;3.7174;
9.1060;-0.4362;0.4741;4.5869;2.3387;0.3316;3.7174;
9.1070;-0.4362;0.4741;4.5869;0.7330;0.3316;0.8552;
9.1090;-3.2642;1.1637;0.5897;0.7330;0.3316;0.8552;
9.1690;-3.2642;1.1637;0.5897;0.7330;0.3316;0.8552;
9.1720;-3.2642;1.1637;0.5897;0.7330;0.3316;0.8552;
9.1740;-3.2642;1.1637;0.5897;-0.4014;0.2967;-0.0174;
9.1750;-1.6921;2.2874;-5.0462;-0.4014;0.2967;-0.0174;
9.2350;-1.6921;2.2874;-5.0462;-0.4014;0.2967;-0.0174;
9.2370;-1.6921;2.2874;-5.0462;-0.4014;0.2967;-0.0174;
9.2380;-1.6921;2.2874;-5.0462;-1.0297;0.4887;-0.6981;
9.2390;2.2351;-1.6852;-0.6298;-1.0297;0.4887;-0.6981;
9.3020;2.2351;-1.6852;-0.6298;-1.0297;0.4887;-0.6981;
9.3040;2.2351;-1.6852;-0.6298;-1.0297;0.4887;-0.6981;
9.3050;2.2351;-1.6852;-0.6298;-1.0297;0.5410;-0.9075;
9.3070;2.4024;0.1901;4.4082;-1.0297;0.5410;-0.9075;
9.3670;2.4024;0.1901;4.4082;-1.0297;0.5410;-0.9075;
9.3700;2.4024;0.1901;4.4082;-1.0297;0.5410;-0.9075;
9.3710;2.4024;0.1901;4.4082;-0.7854;0.4014;-0.7854;
9.3730;2.2841;-0.8713;-1.6373;-0.7854;0.4014;-0.7854;
9.4330;2.2841;-0.8713;-1.6373;-0.7854;0.4014;-0.7854;
9.4350;2.2841;-0.8713;-1.6373;-0.7854;0.4014;-0.7854;
9.4370;2.2841;-0.8713;-1.6373;-0.5236;0.1920;-0.5410;
9.4380;3.8469;-2.1368;-0.8473;-0.5236;0.1920;-0.5410;
9.4990;3.8469;-2.1368;-0.8473;-0.5236;0.1920;-0.5410;
9.5030;3.8469;-2.1368;-0.8473;-0.5236;0.1920;-0.5410;
9.5040;3.8469;-2.1368;-0.8473;-0.3840;0.1920;-0.4189;
9.5060;-0.5949;-5.0177;-6.5322;-0.3840;0.1920;-0.4189;
9.5650;-0.5949;-5.0177;-6.5322;-0.3840;0.1920;-0.4189;
9.5670;-0.5949;-5.0177;-6.5322;-0.3840;0.1920;-0.4189;
9.5680;-0.5949;-5.0177;-6.5322;-0.3665;0.3490;-0.4189;
9.5690;-4.3747;0.4008;5.1147;-0.3665;0.3490;-0.4189;
9.6320;-4.3747;0.4008;5.1147;-0.3665;0.3490;-0.4189;
9.6340;-4.3747;0.4008;5.1147;-0.3665;0.3490;-0.4189;
9.6350;-4.3747;0.4008;5.1147;-0.3840;0.2792;-0.4014;
9.6360;-0.8505;5.5879;-0.7718;-0.3840;0.2792;-0.4014;
9.6970;-0.8505;5.5879;-0.7718;-0.3840;0.2792;-0.4014;
9.7000;-0.8505;5.5879;-0.7718;-0.3840;0.2792;-0.4014;
9.7010;-0.8505;5.5879;-0.7718;-1.2915;0.0872;-3.0542;
9.7020;-0.7504;3.6480;-3.5204;-1.2915;0.0872;-3.0542;
9.7640;-0.7504;3.6480;-3.5204;-1.2915;0.0872;-3.0542;
9.7660;-0.7504;3.6480;-3.5204;-1.2915;0.0872;-3.0542;
9.7670;-0.7504;3.6480;-3.5204;-1.6580;0.0174;-4.4505;
9.7680;-3.1023;1.5061;0.3704;-1.6580;0.0174;-4.4505;
9.8310;-3.1023;1.5061;0.3704;-1.6580;0.0174;-4.4505;
9.8320;-3.1023;1.5061;0.3704;-1.6580;0.0174;-4.4505;
9.8340;-3.1023;1.5061;0.3704;-1.4311;0.1571;-4.4505;
9.8350;-3.9478;-5.3034;12.4885;-1.4311;0.1571;-4.4505;
9.8950;-3.9478;-5.3034;12.4885;-1.4311;0.1571;-4.4505;
9.8980;-3.9478;-5.3034;12.4885;-1.4311;0.1571;-4.4505;
9.8990;-3.9478;-5.3034;12.4885;-0.7679;0.4538;-3.1764;
9.9000;-5.0569;-0.5720;6.5432;-0.7679;0.4538;-3.1764;
9.9610;-5.0569;-0.5720;6.5432;-0.7679;0.4538;-3.1764;
9.9670;-5.0569;-0.5720;6.5432;-0.7679;0.4538;-3.1764;
9.9730;-5.0569;-0.5720;6.5432;1.6755;0.4189;4.5901;
9.9740;3.3437;-6.7709;-1.9970;1.6755;0.4189;4.5901;
10.0260;3.3437;-6.7709;-1.9970;1.6755;0.4189;4.5901;
10.0290;3.3437;-6.7709;-1.9970;1.6755;0.4189;4.5901;
10.0300;3.3437;-6.7709;-1.9970;2.0943;0.5410;5.0613;
10.0310;-1.8706;4.2076;-4.0269;2.0943;0.5410;5.0613;
10.0940;-1.8706;4.2076;-4.0269;2.0943;0.5410;5.0613;
10.0950;-1.8706;4.2076;-4.0269;2.0943;0.5410;5.0613;
10.0960;-1.8706;4.2076;-4.0269;2.3736;0.5759;5.3580;
10.0970;4.2821;2.8559;-3.8073;2.3736;0.5759;5.3580;
10.1590;4.2821;2.8559;-3.8073;2.3736;0.5759;5.3580;
10.1620;4.2821;2.8559;-3.8073;2.3736;0.5759;5.3580;
10.1630;4.2821;2.8559;-3.8073;1.6231;0.5585;2.5481;
10.1640;0.7420;1.1271;3.0753;1.6231;0.5585;2.5481;
10.2260;0.7420;1.1271;3.0753;1.6231;0.5585;2.5481;
10.2280;0.7420;1.1271;3.0753;1.6231;0.5585;2.5481;
10.2300;0.7420;1.1271;3.0753;0.6806;0.2618;0.6981;
10.2550;-1.9024;1.7392;1.0121;0.6806;0.2618;0.6981;
10.2910;-1.9024;1.7392;1.0121;0.6806;0.2618;0.6981;
10.2940;-1.9024;1.7392;1.0121;0.6806;0.2618;0.6981;
10.2980;-1.9024;1.7392;1.0121;-0.4538;-0.0174;-0.2269;
10.2990;-0.8595;1.1910;-3.4026;-0.4538;-0.0174;-0.2269;
10.3560;-0.8595;1.1910;-3.4026;-0.4538;-0.0174;-0.2269;
10.3660;-0.8595;1.1910;-3.4026;-0.4538;-0.0174;-0.2269;
10.3660;-0.8595;1.1910;-3.4026;-0.9424;0.0698;-0.8552;
10.3670;1.8799;-2.4325;-2.1330;-0.9424;0.0698;-0.8552;
10.4930;1.8799;-2.4325;-2.1330;-0.9424;0.0698;-0.8552;
10.4960;1.8799;-2.4325;-2.1330;-0.6632;0.0349;-0.7679;
10.4980;1.8799;-2.4325;-2.1330;-0.6632;0.0349;-0.7679;
10.4990;8.1792;-3.2174;-0.8753;-0.6632;0.0349;-0.7679;
10.5000;8.1792;-3.2174;-0.8753;-0.6632;0.0349;-0.7679;
10.5010;8.1792;-3.2174;-0.8753;-0.6632;0.0349;-0.7679;
10.5020;8.1792;-3.2174;-0.8753;-0.6632;0.0349;-0.7679;
10.5020;8.1792;-3.2174;-0.8753;-0.6632;0.0349;-0.7679;
10.5570;8.1792;-3.2174;-0.8753;-0.6632;0.0349;-0.7679;
10.5580;8.1792;-3.2174;-0.8753;-0.6632;0.0349;-0.7679;
10.5590;8.1792;-3.2174;-0.8753;-0.5236;-0.0524;-0.5585;
10.5600;1.6775;-2.1970;-3.4169;-0.5236;-0.0524;-0.5585;
10.6260;1.6775;-2.1970;-3.4169;-0.5236;-0.0524;-0.5585;
10.6260;1.6775;-2.1970;-3.4169;-0.4014;-0.0349;-0.4014;
10.6270;-1.2112;-5.2402;-5.1109;-0.4014;-0.0349;-0.4014;
10.6330;-1.2112;-5.2402;-5.1109;-0.4014;-0.0349;-0.4014;
10.6870;-1.2112;-5.2402;-5.1109;-0.4014;-0.0349;-0.4014;
10.6890;-1.2112;-5.2402;-5.1109;-0.4014;-0.0349;-0.4014;
10.6900;-1.2112;-5.2402;-5.1109;-0.4014;0.2269;-0.3840;
10.6910;-1.0966;2.5155;2.8151;-0.4014;0.2269;-0.3840;
10.7590;-1.0966;2.5155;2.8151;-0.4014;0.2269;-0.3840;
10.7600;-1.0966;2.5155;2.8151;-0.4014;0.1396;-0.3840;
10.7650;-1.1840;4.3175;-0.7116;-0.4014;0.1396;-0.3840;
10.7690;-1.1840;4.3175;-0.7116;-0.4014;0.1396;-0.3840;
10.8200;-1.1840;4.3175;-0.7116;-0.4014;0.1396;-0.3840;
10.8210;-1.1840;4.3175;-0.7116;-0.4014;0.1396;-0.3840;
10.8220;-1.1840;4.3175;-0.7116;-1.3788;0.0000;-4.4330;
10.8230;-1.3044;3.2461;-4.5368;-1.3788;0.0000;-4.4330;
10.8880;-1.3044;3.2461;-4.5368;-1.3788;0.0000;-4.4330;
10.8940;-1.3044;3.2461;-4.5368;-1.3788;0.0000;-4.4330;
10.8960;-1.3044;3.2461;-4.5368;-1.3089;0.0349;-4.4330;
10.8980;-3.3120;2.6357;-0.3184;-1.3089;0.0349;-4.4330;
10.9510;-3.3120;2.6357;-0.3184;-1.3089;0.0349;-4.4330;
10.9530;-3.3120;2.6357;-0.3184;-1.3089;0.0349;-4.4330;
10.9540;-3.3120;2.6357;-0.3184;-1.0297;0.5410;-4.4330;
10.9550;-3.6838;-7.5691;8.5844;-1.0297;0.5410;-4.4330;
11.0170;-3.6838;-7.5691;8.5844;-1.0297;0.5410;-4.4330;
11.0210;-3.6838;-7.5691;8.5844;-1.0297;0.5410;-4.4330;
11.0240;-3.6838;-7.5691;8.5844;0.4189;0.7679;-0.2269;
11.0280;-6.3826;0.4104;1.1187;0.4189;0.7679;-0.2269;
11.0840;-6.3826;0.4104;1.1187;0.4189;0.7679;-0.2269;
11.0850;-6.3826;0.4104;1.1187;0.4189;0.7679;-0.2269;
11.0860;-6.3826;0.4104;1.1187;1.2042;0.6108;2.6703;
11.0870;6.1371;-8.7917;-2.2567;1.2042;0.6108;2.6703;
11.1490;6.1371;-8.7917;-2.2567;1.2042;0.6108;2.6703;
11.1530;6.1371;-8.7917;-2.2567;1.2042;0.6108;2.6703;
11.1540;6.1371;-8.7917;-2.2567;1.8500;0.5759;4.5726;
11.1560;-3.5100;6.8577;-7.3563;1.8500;0.5759;4.5726;
11.2160;-3.5100;6.8577;-7.3563;1.8500;0.5759;4.5726;
11.2170;-3.5100;6.8577;-7.3563;1.8500;0.5759;4.5726;
11.2180;-3.5100;6.8577;-7.3563;2.1641;0.3840;5.0438;
11.2190;8.6344;-0.3029;-2.6969;2.1641;0.3840;5.0438;
11.2820;8.6344;-0.3029;-2.6969;2.1641;0.3840;5.0438;
11.2840;8.6344;-0.3029;-2.6969;2.1641;0.3840;5.0438;
11.2850;8.6344;-0.3029;-2.6969;1.3788;0.2094;2.6005;
11.2860;-0.3577;1.1538;1.1009;1.3788;0.2094;2.6005;
11.3470;-0.3577;1.1538;1.1009;1.3788;0.2094;2.6005;
11.3490;-0.3577;1.1538;1.1009;1.3788;0.2094;2.6005;
11.3500;-0.3577;1.1538;1.1009;0.2618;0.0000;0.5236;
11.3510;-1.9332;1.6568;0.1531;0.2618;0.0000;0.5236;
11.4140;-1.9332;1.6568;0.1531;0.2618;0.0000;0.5236;
11.4150;-1.9332;1.6568;0.1531;0.2618;0.0000;0.5236;
11.4160;-1.9332;1.6568;0.1531;-0.5934;0.0000;-0.3141;
11.4170;-1.0297;1.9140;-3.0757;-0.5934;0.0000;-0.3141;
11.4790;-1.0297;1.9140;-3.0757;-0.5934;0.0000;-0.3141;
11.4810;-1.0297;1.9140;-3.0757;-0.5934;0.0000;-0.3141;
11.4820;-1.0297;1.9140;-3.0757;-1.0297;0.2443;-0.9948;
11.4840;0.3119;-2.0482;-3.2393;-1.0297;0.2443;-0.9948;
11.5470;0.3119;-2.0482;-3.2393;-1.0297;0.2443;-0.9948;
11.5480;0.3119;-2.0482;-3.2393;-1.0297;0.2443;-0.9948;
11.5500;0.3119;-2.0482;-3.2393;-0.9250;0.3840;-1.1170;
11.5510;2.5253;0.7825;6.4049;-0.9250;0.3840;-1.1170;
11.6110;2.5253;0.7825;6.4049;-0.9250;0.3840;-1.1170;
11.6140;2.5253;0.7825;6.4049;-0.9250;0.3840;-1.1170;
11.6150;2.5253;0.7825;6.4049;-0.5236;0.2269;-0.8028;
11.6170;6.7968;-3.0527;-0.9406;-0.5236;0.2269;-0.8028;
11.6770;6.7968;-3.0527;-0.9406;-0.5236;0.2269;-0.8028;
11.6790;6.7968;-3.0527;-0.9406;-0.5236;0.2269;-0.8028;
11.6810;6.7968;-3.0527;-0.9406;-0.3490;0.0349;-0.5061;
11.6820;0.9821;-2.8218;-5.3362;-0.3490;0.0349;-0.5061;
11.7450;0.9821;-2.8218;-5.3362;-0.3490;0.0349;-0.5061;
11.7460;0.9821;-2.8218;-5.3362;-0.3490;0.0349;-0.5061;
11.7480;0.9821;-2.8218;-5.3362;-0.2618;0.0174;-0.3316;
11.7490;-1.9257;-5.3116;-4.6098;-0.2618;0.0174;-0.3316;
11.8090;-1.9257;-5.3116;-4.6098;-0.2618;0.0174;-0.3316;
11.8110;-1.9257;-5.3116;-4.6098;-0.2618;0.0174;-0.3316;
11.8120;-1.9257;-5.3116;-4.6098;-0.2618;0.0872;-0.2967;
11.8130;-1.0813;3.0472;-0.6210;-0.2618;0.0872;-0.2967;
11.8750;-1.0813;3.0472;-0.6210;-0.2618;0.0872;-0.2967;
11.8780;-1.0813;3.0472;-0.6210;-0.2618;0.0872;-0.2967;
11.8790;-1.0813;3.0472;-0.6210;-0.6458;0.0524;-1.7278;
11.8800;-0.7554;4.3833;-1.2780;-0.6458;0.0524;-1.7278;
11.9420;-0.7554;4.3833;-1.2780;-0.6458;0.0524;-1.7278;
11.9440;-0.7554;4.3833;-1.2780;-0.6458;0.0524;-1.7278;
11.9450;-0.7554;4.3833;-1.2780;-1.4486;0.0698;-4.6250;
11.9470;-1.5876;3.5957;-2.4601;-1.4486;0.0698;-4.6250;
12.0100;-1.5876;3.5957;-2.4601;-1.4486;0.0698;-4.6250;
12.0110;-1.5876;3.5957;-2.4601;-1.4486;0.0698;-4.6250;
12.0120;-1.5876;3.5957;-2.4601;-1.3788;0.1396;-4.6424;
12.0140;-2.3555;3.2590;-0.4165;-1.3788;0.1396;-4.6424;
12.0740;-2.3555;3.2590;-0.4165;-1.3788;0.1396;-4.6424;
12.0750;-2.3555;3.2590;-0.4165;-1.3788;0.1396;-4.6424;
12.0760;-2.3555;3.2590;-0.4165;-1.2915;0.4538;-4.6599;
12.0770;-2.0288;-7.2042;13.9408;-1.2915;0.4538;-4.6599;
12.1400;-2.0288;-7.2042;13.9408;-1.2915;0.4538;-4.6599;
12.1420;-2.0288;-7.2042;13.9408;-1.2915;0.4538;-4.6599;
12.1440;-2.0288;-7.2042;13.9408;0.0524;0.6283;-0.2443;
12.1450;-7.2341;-1.1769;7.7498;0.0524;0.6283;-0.2443;
12.2050;-7.2341;-1.1769;7.7498;0.0524;0.6283;-0.2443;
12.2080;-7.2341;-1.1769;7.7498;0.0524;0.6283;-0.2443;
12.2090;-7.2341;-1.1769;7.7498;0.3316;0.5759;-0.1745;
12.2100;0.2519;-4.8723;-3.0150;0.3316;0.5759;-0.1745;
12.2710;0.2519;-4.8723;-3.0150;0.3316;0.5759;-0.1745;
12.2740;0.2519;-4.8723;-3.0150;0.3316;0.5759;-0.1745;
12.2750;0.2519;-4.8723;-3.0150;1.7278;0.2792;3.9967;
12.2760;-0.9680;6.1656;-7.4307;1.7278;0.2792;3.9967;
12.3380;-0.9680;6.1656;-7.4307;1.7278;0.2792;3.9967;
12.3390;-0.9680;6.1656;-7.4307;1.7278;0.2792;3.9967;
12.3410;-0.9680;6.1656;-7.4307;2.2339;0.0174;4.4330;
12.3420;8.0076;0.7357;-1.9723;2.2339;0.0174;4.4330;
12.4030;8.0076;0.7357;-1.9723;2.2339;0.0174;4.4330;
12.4060;8.0076;0.7357;-1.9723;2.2339;0.0174;4.4330;
12.4280;8.0076;0.7357;-1.9723;2.2339;-0.2967;4.5901;
12.4300;-0.3649;1.1048;-1.2683;2.2339;-0.2967;4.5901;
12.4700;-0.3649;1.1048;-1.2683;2.2339;-0.2967;4.5901;
12.4780;-0.3649;1.1048;-1.2683;2.2339;-0.2967;4.5901;
12.4800;-0.3649;1.1048;-1.2683;0.8203;-0.3141;0.8203;
12.4810;-3.1802;2.3935;0.3431;0.8203;-0.3141;0.8203;
12.5480;-3.1802;2.3935;0.3431;0.8203;-0.3141;0.8203;
12.5500;-3.1802;2.3935;0.3431;0.8203;-0.3141;0.8203;
12.5530;-3.1802;2.3935;0.3431;-0.2967;-0.2443;0.0174;
12.5540;-0.8074;1.1970;-2.5765;-0.2967;-0.2443;0.0174;
12.6040;-0.8074;1.1970;-2.5765;-0.2967;-0.2443;0.0174;
12.6050;-0.8074;1.1970;-2.5765;-0.9773;0.1396;-0.6981;
12.6060;0.6836;-0.7135;-0.0267;-0.9773;0.1396;-0.6981;
12.6080;0.6836;-0.7135;-0.0267;-0.9773;0.1396;-0.6981;
12.6690;0.6836;-0.7135;-0.0267;-0.9773;0.1396;-0.6981;
12.6700;0.6836;-0.7135;-0.0267;-1.0821;0.3490;-0.9948;
12.6710;4.3082;0.5417;2.0128;-1.0821;0.3490;-0.9948;
12.6740;4.3082;0.5417;2.0128;-1.0821;0.3490;-0.9948;
12.7330;4.3082;0.5417;2.0128;-1.0821;0.3490;-0.9948;
12.7350;4.3082;0.5417;2.0128;-1.0821;0.3490;-0.9948;
12.7360;4.3082;0.5417;2.0128;-1.8500;0.2443;-4.4505;
12.7370;2.8089;-3.3284;5.4973;-1.8500;0.2443;-4.4505;
12.7990;2.8089;-3.3284;5.4973;-1.8500;0.2443;-4.4505;
12.8020;2.8089;-3.3284;5.4973;-1.8500;0.2443;-4.4505;
12.8030;2.8089;-3.3284;5.4973;-1.8325;-0.1222;-4.3283;
12.8040;6.6967;-1.6015;-8.4089;-1.8325;-0.1222;-4.3283;
12.8640;6.6967;-1.6015;-8.4089;-1.8325;-0.1222;-4.3283;
12.8670;6.6967;-1.6015;-8.4089;-1.8325;-0.1222;-4.3283;
12.8680;6.6967;-1.6015;-8.4089;-0.7156;-0.2967;-1.1693;
12.8690;-2.3926;-5.2160;-2.7277;-0.7156;-0.2967;-1.1693;
12.9300;-2.3926;-5.2160;-2.7277;-0.7156;-0.2967;-1.1693;
12.9330;-2.3926;-5.2160;-2.7277;-0.7156;-0.2967;-1.1693;
12.9330;-2.3926;-5.2160;-2.7277;0.5410;-0.1396;2.7226;
12.9340;-0.5382;3.2100;3.5620;0.5410;-0.1396;2.7226;
12.9960;-0.5382;3.2100;3.5620;0.5410;-0.1396;2.7226;
12.9990;-0.5382;3.2100;3.5620;0.5410;-0.1396;2.7226;
12.9990;-0.5382;3.2100;3.5620;-0.3665;0.0698;-0.2094;
13.0000;-0.5851;6.1656;-2.0119;-0.3665;0.0698;-0.2094;
13.0620;-0.5851;6.1656;-2.0119;-0.3665;0.0698;-0.2094;
13.0650;-0.5851;6.1656;-2.0119;-0.3665;0.0698;-0.2094;
13.0650;-0.5851;6.1656;-2.0119;-1.2915;0.3490;-3.2113;
13.0660;-1.4782;4.4920;-2.7962;-1.2915;0.3490;-3.2113;
13.1290;-1.4782;4.4920;-2.7962;-1.2915;0.3490;-3.2113;
13.1310;-1.4782;4.4920;-2.7962;-1.2915;0.3490;-3.2113;
13.1310;-1.4782;4.4920;-2.7962;-1.5358;0.5236;-4.7122;
13.1320;-2.0166;-0.4807;3.5835;-1.5358;0.5236;-4.7122;
13.1940;-2.0166;-0.4807;3.5835;-1.5358;0.5236;-4.7122;
13.1970;-2.0166;-0.4807;3.5835;-1.5358;0.5236;-4.7122;
13.1970;-2.0166;-0.4807;3.5835;0.2792;0.8028;-0.2618;
13.1980;-4.2000;-7.2358;11.0967;0.2792;0.8028;-0.2618;
13.2600;-4.2000;-7.2358;11.0967;0.2792;0.8028;-0.2618;
13.2630;-4.2000;-7.2358;11.0967;0.2792;0.8028;-0.2618;
13.2650;-4.2000;-7.2358;11.0967;0.4538;0.8552;-0.1396;
13.2650;-6.0375;1.1204;-0.5845;0.4538;0.8552;-0.1396;
13.3260;-6.0375;1.1204;-0.5845;0.4538;0.8552;-0.1396;
13.3290;-6.0375;1.1204;-0.5845;0.4538;0.8552;-0.1396;
13.3290;-6.0375;1.1204;-0.5845;1.0123;0.6806;1.2915;
13.3300;2.5621;-7.9342;-6.5641;1.0123;0.6806;1.2915;
13.3920;2.5621;-7.9342;-6.5641;1.0123;0.6806;1.2915;
13.3950;2.5621;-7.9342;-6.5641;1.0123;0.6806;1.2915;
13.3950;2.5621;-7.9342;-6.5641;2.0245;0.5061;4.3981;
13.3960;6.1029;3.2614;-7.2705;2.0245;0.5061;4.3981;
13.4580;6.1029;3.2614;-7.2705;2.0245;0.5061;4.3981;
13.4610;6.1029;3.2614;-7.2705;2.0245;0.5061;4.3981;
13.4610;6.1029;3.2614;-7.2705;2.1990;0.1396;4.8693;
13.4620;0.8689;1.1043;13.1487;2.1990;0.1396;4.8693;
13.5240;0.8689;1.1043;13.1487;2.1990;0.1396;4.8693;
13.5270;0.8689;1.1043;13.1487;2.1990;0.1396;4.8693;
13.5270;0.8689;1.1043;13.1487;1.5358;-0.0524;3.7000;
13.5280;-1.4758;1.5725;-3.9257;1.5358;-0.0524;3.7000;
13.5910;-1.4758;1.5725;-3.9257;1.5358;-0.0524;3.7000;
13.5930;-1.4758;1.5725;-3.9257;1.5358;-0.0524;3.7000;
13.5930;-1.4758;1.5725;-3.9257;0.1920;-0.1396;0.5934;
13.5940;-1.7316;2.0977;1.0646;0.1920;-0.1396;0.5934;
13.6570;-1.7316;2.0977;1.0646;0.1920;-0.1396;0.5934;
13.6590;-1.7316;2.0977;1.0646;0.1920;-0.1396;0.5934;
13.6600;-1.7316;2.0977;1.0646;-0.8552;0.0349;-0.5061;
13.6610;-0.0784;-0.9041;-2.2972;-0.8552;0.0349;-0.5061;
13.7230;-0.0784;-0.9041;-2.2972;-0.8552;0.0349;-0.5061;
13.7250;-0.0784;-0.9041;-2.2972;-0.8552;0.0349;-0.5061;
13.7260;-0.0784;-0.9041;-2.2972;-0.9424;0.2967;-0.9599;
13.7270;3.4061;0.5240;3.2270;-0.9424;0.2967;-0.9599;
13.7900;3.4061;0.5240;3.2270;-0.9424;0.2967;-0.9599;
13.7930;3.4061;0.5240;3.2270;-0.9424;0.2967;-0.9599;
13.7990;3.4061;0.5240;3.2270;-0.6981;0.2443;-0.9075;
13.8030;4.1388;-1.1622;0.9129;-0.6981;0.2443;-0.9075;
13.8550;4.1388;-1.1622;0.9129;-0.6981;0.2443;-0.9075;
13.8570;4.1388;-1.1622;0.9129;-0.6981;0.2443;-0.9075;
13.8580;4.1388;-1.1622;0.9129;-0.4363;0.0524;-0.6632;
13.8590;3.4009;-4.6729;2.0649;-0.4363;0.0524;-0.6632;
13.9220;3.4009;-4.6729;2.0649;-0.4363;0.0524;-0.6632;
13.9230;3.4009;-4.6729;2.0649;-0.4363;0.0524;-0.6632;
13.9240;3.4009;-4.6729;2.0649;-0.2792;0.0349;-0.5061;
13.9250;3.9706;-4.0596;-7.3678;-0.2792;0.0349;-0.5061;
13.9870;3.9706;-4.0596;-7.3678;-0.2792;0.0349;-0.5061;
13.9890;3.9706;-4.0596;-7.3678;-0.2792;0.0349;-0.5061;
13.9900;3.9706;-4.0596;-7.3678;-0.1920;0.2269;-0.4712;
13.9910;-5.0353;-3.5648;-2.1386;-0.1920;0.2269;-0.4712;
14.0540;-5.0353;-3.5648;-2.1386;-0.1920;0.2269;-0.4712;
14.0560;-5.0353;-3.5648;-2.1386;-0.1920;0.2269;-0.4712;
14.0570;-5.0353;-3.5648;-2.1386;-0.1571;0.3141;-0.4189;
14.0580;-1.1014;4.2479;0.1800;-0.1571;0.3141;-0.4189;
14.1200;-1.1014;4.2479;0.1800;-0.1571;0.3141;-0.4189;
14.1220;-1.1014;4.2479;0.1800;-0.1571;0.3141;-0.4189;
14.1230;-1.1014;4.2479;0.1800;-0.6283;0.1920;-1.7278;
14.1240;-1.5076;5.7599;-2.0426;-0.6283;0.1920;-1.7278;
14.1860;-1.5076;5.7599;-2.0426;-0.6283;0.1920;-1.7278;
14.1880;-1.5076;5.7599;-2.0426;-0.6283;0.1920;-1.7278;
14.1890;-1.5076;5.7599;-2.0426;-1.5533;0.0698;-4.3457;
14.1910;-1.7932;3.6832;-3.7598;-1.5533;0.0698;-4.3457;
14.2520;-1.7932;3.6832;-3.7598;-1.5533;0.0698;-4.3457;
14.2540;-1.7932;3.6832;-3.7598;-1.5533;0.0698;-4.3457;
14.2550;-1.7932;3.6832;-3.7598;-1.4660;0.1745;-4.3632;
14.2560;-0.7250;-3.7236;8.2431;-1.4660;0.1745;-4.3632;
14.3180;-0.7250;-3.7236;8.2431;-1.4660;0.1745;-4.3632;
14.3200;-0.7250;-3.7236;8.2431;-1.4660;0.1745;-4.3632;
14.3210;-0.7250;-3.7236;8.2431;-0.8028;0.6981;-2.9670;
14.3220;-7.8632;-3.3697;10.3764;-0.8028;0.6981;-2.9670;
14.3840;-7.8632;-3.3697;10.3764;-0.8028;0.6981;-2.9670;
14.3860;-7.8632;-3.3697;10.3764;-0.8028;0.6981;-2.9670;
14.3870;-7.8632;-3.3697;10.3764;0.3665;0.8203;-0.2618;
14.3880;-2.1486;0.7741;-2.2605;0.3665;0.8203;-0.2618;
14.4500;-2.1486;0.7741;-2.2605;0.3665;0.8203;-0.2618;
14.4520;-2.1486;0.7741;-2.2605;0.3665;0.8203;-0.2618;
14.4530;-2.1486;0.7741;-2.2605;1.3439;0.5934;2.6528;
14.4770;3.1604;-4.8222;-6.4820;1.3439;0.5934;2.6528;
14.5470;3.1604;-4.8222;-6.4820;1.3439;0.5934;2.6528;
14.5580;3.1604;-4.8222;-6.4820;1.3439;0.5934;2.6528;
14.5590;3.1604;-4.8222;-6.4820;1.9896;0.3840;4.1887;
14.5600;3.9890;5.0097;-7.8231;1.9896;0.3840;4.1887;
14.5810;3.9890;5.0097;-7.8231;1.9896;0.3840;4.1887;
14.5920;3.9890;5.0097;-7.8231;1.9896;0.3840;4.1887;
14.5940;3.9890;5.0097;-7.8231;2.2689;-0.1222;4.7122;
14.6070;-0.3383;1.8181;0.2126;2.2689;-0.1222;4.7122;
14.6520;-0.3383;1.8181;0.2126;2.2689;-0.1222;4.7122;
14.6530;-0.3383;1.8181;0.2126;2.2689;-0.1222;4.7122;
14.6540;-0.3383;1.8181;0.2126;1.0297;-0.1396;2.0245;
14.6550;-2.7618;1.6254;2.0625;1.0297;-0.1396;2.0245;
14.7160;-2.7618;1.6254;2.0625;1.0297;-0.1396;2.0245;
14.7170;-2.7618;1.6254;2.0625;-0.0174;-0.0349;0.2094;
14.7180;-0.8713;1.8728;-2.8524;-0.0174;-0.0349;0.2094;
14.7190;-0.8713;1.8728;-2.8524;-0.0174;-0.0349;0.2094;
14.7810;-0.8713;1.8728;-2.8524;-0.0174;-0.0349;0.2094;
14.7820;-0.8713;1.8728;-2.8524;-0.7505;0.2967;-0.6632;
14.7830;-0.7330;0.1440;-2.7823;-0.7505;0.2967;-0.6632;
14.7840;-0.7330;0.1440;-2.7823;-0.7505;0.2967;-0.6632;
14.8490;-0.7330;0.1440;-2.7823;-0.7505;0.2967;-0.6632;
14.8500;-0.7330;0.1440;-2.7823;-0.7505;0.2967;-0.6632;
14.8510;-0.7330;0.1440;-2.7823;-0.8203;0.4887;-1.0472;
14.8520;3.3849;-0.8574;4.6600;-0.8203;0.4887;-1.0472;
14.9100;3.3849;-0.8574;4.6600;-0.8203;0.4887;-1.0472;
14.9130;3.3849;-0.8574;4.6600;-0.8203;0.4887;-1.0472;
14.9140;3.3849;-0.8574;4.6600;-0.5236;0.3141;-0.8726;
14.9140;3.1048;-1.9104;0.3128;-0.5236;0.3141;-0.8726;
14.9770;3.1048;-1.9104;0.3128;-0.5236;0.3141;-0.8726;
14.9790;3.1048;-1.9104;0.3128;-0.5236;0.3141;-0.8726;
14.9800;3.1048;-1.9104;0.3128;-0.3490;0.0349;-0.5759;
14.9800;3.7572;-1.7020;-4.0777;-0.3490;0.0349;-0.5759;
15.0430;3.7572;-1.7020;-4.0777;-0.3490;0.0349;-0.5759;
15.0450;3.7572;-1.7020;-4.0777;-0.3490;0.0349;-0.5759;
15.0460;3.7572;-1.7020;-4.0777;-0.2618;0.0000;-0.4014;
15.0460;1.0090;-3.9325;-6.9720;-0.2618;0.0000;-0.4014;
15.1090;1.0090;-3.9325;-6.9720;-0.2618;0.0000;-0.4014;
15.1110;1.0090;-3.9325;-6.9720;-0.2618;0.0000;-0.4014;
15.1110;1.0090;-3.9325;-6.9720;-0.2618;0.2443;-0.4014;
15.1120;-3.4157;0.7655;0.7485;-0.2618;0.2443;-0.4014;
15.1740;-3.4157;0.7655;0.7485;-0.2618;0.2443;-0.4014;
15.1770;-3.4157;0.7655;0.7485;-0.2618;0.2443;-0.4014;
15.1770;-3.4157;0.7655;0.7485;-0.2792;0.2269;-0.4014;
15.1780;0.1592;5.3140;1.5031;-0.2792;0.2269;-0.4014;
15.2400;0.1592;5.3140;1.5031;-0.2792;0.2269;-0.4014;
15.2430;0.1592;5.3140;1.5031;-0.2792;0.2269;-0.4014;
15.2430;0.1592;5.3140;1.5031;-2.0071;0.1571;-4.4854;
15.2440;-0.9772;4.5909;-3.5375;-2.0071;0.1571;-4.4854;
15.3060;-0.9772;4.5909;-3.5375;-2.0071;0.1571;-4.4854;
15.3090;-0.9772;4.5909;-3.5375;-2.0071;0.1571;-4.4854;
15.3090;-0.9772;4.5909;-3.5375;-1.8674;0.2269;-4.4854;
15.3100;-3.4485;2.9509;-1.2612;-1.8674;0.2269;-4.4854;
15.3720;-3.4485;2.9509;-1.2612;-1.8674;0.2269;-4.4854;
15.3750;-3.4485;2.9509;-1.2612;-1.8674;0.2269;-4.4854;
15.3750;-3.4485;2.9509;-1.2612;-1.6405;0.6108;-4.4679;
15.3760;-2.9791;-9.3039;11.8452;-1.6405;0.6108;-4.4679;
15.4380;-2.9791;-9.3039;11.8452;-1.6405;0.6108;-4.4679;
15.4410;-2.9791;-9.3039;11.8452;-1.6405;0.6108;-4.4679;
15.4410;-2.9791;-9.3039;11.8452;0.3316;0.9424;-0.2094;
15.4420;-9.1497;1.1171;4.0515;0.3316;0.9424;-0.2094;
15.5040;-9.1497;1.1171;4.0515;0.3316;0.9424;-0.2094;
15.5070;-9.1497;1.1171;4.0515;0.3316;0.9424;-0.2094;
15.5070;-9.1497;1.1171;4.0515;0.6283;0.9075;-0.1745;
15.5080;-0.6469;-4.8517;-3.6539;0.6283;0.9075;-0.1745;
15.5710;-0.6469;-4.8517;-3.6539;0.6283;0.9075;-0.1745;
15.5730;-0.6469;-4.8517;-3.6539;0.6283;0.9075;-0.1745;
15.5730;-0.6469;-4.8517;-3.6539;1.9896;0.5410;3.9094;
15.5740;1.2016;4.4434;-4.5257;1.9896;0.5410;3.9094;
15.6370;1.2016;4.4434;-4.5257;1.9896;0.5410;3.9094;
15.6390;1.2016;4.4434;-4.5257;1.9896;0.5410;3.9094;
15.6390;1.2016;4.4434;-4.5257;2.2689;0.1222;4.4330;
15.6400;4.3427;0.0025;4.7512;2.2689;0.1222;4.4330;
15.7030;4.3427;0.0025;4.7512;2.2689;0.1222;4.4330;
15.7050;4.3427;0.0025;4.7512;2.2689;0.1222;4.4330;
15.7050;4.3427;0.0025;4.7512;2.2514;-0.0872;4.5552;
15.7060;-0.9328;1.1530;2.0192;2.2514;-0.0872;4.5552;
15.7680;-0.9328;1.1530;2.0192;2.2514;-0.0872;4.5552;
15.7710;-0.9328;1.1530;2.0192;2.2514;-0.0872;4.5552;
15.7710;-0.9328;1.1530;2.0192;0.5236;-0.0698;0.7679;
15.7720;-0.8077;2.3287;-1.4790;0.5236;-0.0698;0.7679;
15.8350;-0.8077;2.3287;-1.4790;0.5236;-0.0698;0.7679;
15.8370;-0.8077;2.3287;-1.4790;0.5236;-0.0698;0.7679;
15.8380;-0.8077;2.3287;-1.4790;-0.3840;0.1222;-0.0524;
15.8390;0.6100;2.0551;-3.6757;-0.3840;0.1222;-0.0524;
15.9010;0.6100;2.0551;-3.6757;-0.3840;0.1222;-0.0524;
15.9030;0.6100;2.0551;-3.6757;-0.3840;0.1222;-0.0524;
15.9040;0.6100;2.0551;-3.6757;-0.7854;0.4014;-0.7156;
15.9050;1.5988;-0.4743;4.3802;-0.7854;0.4014;-0.7156;
15.9670;1.5988;-0.4743;4.3802;-0.7854;0.4014;-0.7156;
15.9690;1.5988;-0.4743;4.3802;-0.7854;0.4014;-0.7156;
15.9700;1.5988;-0.4743;4.3802;-0.7505;0.4363;-0.9075;
15.9710;3.5501;0.1583;0.3716;-0.7505;0.4363;-0.9075;
16.0330;3.5501;0.1583;0.3716;-0.7505;0.4363;-0.9075;
16.0350;3.5501;0.1583;0.3716;-0.7505;0.4363;-0.9075;
16.0360;3.5501;0.1583;0.3716;-0.5236;0.3141;-0.8552;
16.0370;3.9162;-5.3298;6.0808;-0.5236;0.3141;-0.8552;
16.1000;3.9162;-5.3298;6.0808;-0.5236;0.3141;-0.8552;
16.1010;3.9162;-5.3298;6.0808;-0.5236;0.3141;-0.8552;
16.1020;3.9162;-5.3298;6.0808;-0.4014;0.2618;-0.7679;
16.1030;3.9135;-1.0665;-8.9464;-0.4014;0.2618;-0.7679;
16.1660;3.9135;-1.0665;-8.9464;-0.4014;0.2618;-0.7679;
16.1670;3.9135;-1.0665;-8.9464;-0.4014;0.2618;-0.7679;
16.1680;3.9135;-1.0665;-8.9464;-0.3141;0.3665;-0.6806;
16.1690;-2.4361;-3.8116;0.8222;-0.3141;0.3665;-0.6806;
16.2310;-2.4361;-3.8116;0.8222;-0.3141;0.3665;-0.6806;
16.2340;-2.4361;-3.8116;0.8222;-0.3141;0.3665;-0.6806;
16.2350;-2.4361;-3.8116;0.8222;-0.2618;0.4712;-0.6108;
16.2370;-1.5608;2.7223;1.4104;-0.2618;0.4712;-0.6108;
16.2970;-1.5608;2.7223;1.4104;-0.2618;0.4712;-0.6108;
16.3000;-1.5608;2.7223;1.4104;-0.2618;0.4712;-0.6108;
16.3010;-1.5608;2.7223;1.4104;-0.1571;0.2443;-0.2967;
16.3030;-0.6292;5.5940;-3.3135;-0.1571;0.2443;-0.2967;
16.3640;-0.6292;5.5940;-3.3135;-0.1571;0.2443;-0.2967;
16.3660;-0.6292;5.5940;-3.3135;-0.1571;0.2443;-0.2967;
16.3670;-0.6292;5.5940;-3.3135;-0.0872;-0.2792;-0.0698;
16.3680;-1.7505;4.3408;-4.2102;-0.0872;-0.2792;-0.0698;
16.4300;-1.7505;4.3408;-4.2102;-0.0872;-0.2792;-0.0698;
16.4310;-1.7505;4.3408;-4.2102;-0.0872;-0.2792;-0.0698;
16.4320;-1.7505;4.3408;-4.2102;-0.8726;-0.5061;-2.1990;
16.4330;-1.1968;-2.0379;6.6507;-0.8726;-0.5061;-2.1990;
16.4950;-1.1968;-2.0379;6.6507;-0.8726;-0.5061;-2.1990;
16.4980;-1.1968;-2.0379;6.6507;-0.8726;-0.5061;-2.1990;
16.4990;-1.1968;-2.0379;6.6507;-1.4660;-0.2094;-3.9792;
16.5000;-4.5763;-7.3548;12.2133;-1.4660;-0.2094;-3.9792;
16.5610;-4.5763;-7.3548;12.2133;-1.4660;-0.2094;-3.9792;
16.5630;-4.5763;-7.3548;12.2133;-1.4660;-0.2094;-3.9792;
16.5650;-4.5763;-7.3548;12.2133;-1.4137;0.3490;-4.0665;
16.5730;-5.4887;2.7678;-1.9519;-1.4137;0.3490;-4.0665;
16.6270;-5.4887;2.7678;-1.9519;-1.4137;0.3490;-4.0665;
16.6300;-5.4887;2.7678;-1.9519;-1.4137;0.3490;-4.0665;
16.6470;-5.4887;2.7678;-1.9519;0.9599;0.5585;2.4259;
16.6480;1.0565;-3.4150;-6.8892;0.9599;0.5585;2.4259;
16.6920;1.0565;-3.4150;-6.8892;0.9599;0.5585;2.4259;
16.7010;1.0565;-3.4150;-6.8892;0.9599;0.5585;2.4259;
16.7020;1.0565;-3.4150;-6.8892;2.1816;0.4189;4.6773;
16.7030;2.6367;4.2303;-7.7810;2.1816;0.4189;4.6773;
16.7580;2.6367;4.2303;-7.7810;2.1816;0.4189;4.6773;
16.7620;2.6367;4.2303;-7.7810;2.1816;0.4189;4.6773;
16.7630;2.6367;4.2303;-7.7810;2.3387;0.0349;4.9915;
16.7640;2.1267;2.3201;9.7734;2.3387;0.0349;4.9915;
16.8250;2.1267;2.3201;9.7734;2.3387;0.0349;4.9915;
16.8280;2.1267;2.3201;9.7734;2.3387;0.0349;4.9915;
16.8290;2.1267;2.3201;9.7734;1.3439;-0.0524;2.6354;
16.8300;-0.1841;1.2968;-2.7429;1.3439;-0.0524;2.6354;
16.8930;-0.1841;1.2968;-2.7429;1.3439;-0.0524;2.6354;
16.8940;-0.1841;1.2968;-2.7429;-0.2443;0.0000;0.2792;
16.8950;-0.8428;1.4012;-1.2113;-0.2443;0.0000;0.2792;
16.8960;-0.8428;1.4012;-1.2113;-0.2443;0.0000;0.2792;
16.9570;-0.8428;1.4012;-1.2113;-0.2443;0.0000;0.2792;
16.9590;-0.8428;1.4012;-1.2113;-0.2443;0.0000;0.2792;
16.9600;-0.8428;1.4012;-1.2113;-0.9250;0.3316;-0.5236;
16.9610;0.1885;-0.1658;-2.1665;-0.9250;0.3316;-0.5236;
17.0230;0.1885;-0.1658;-2.1665;-0.9250;0.3316;-0.5236;
17.0260;0.1885;-0.1658;-2.1665;-0.9250;0.3316;-0.5236;
17.0270;0.1885;-0.1658;-2.1665;-1.0123;0.5934;-0.9773;
17.0270;2.6780;0.2113;3.4198;-1.0123;0.5934;-0.9773;
17.0890;2.6780;0.2113;3.4198;-1.0123;0.5934;-0.9773;
17.0910;2.6780;0.2113;3.4198;-1.0123;0.5934;-0.9773;
17.0920;2.6780;0.2113;3.4198;-0.6981;0.4887;-0.9250;
17.0930;0.5011;-0.8047;-0.0931;-0.6981;0.4887;-0.9250;
17.1540;0.5011;-0.8047;-0.0931;-0.6981;0.4887;-0.9250;
17.1570;0.5011;-0.8047;-0.0931;-0.6981;0.4887;-0.9250;
17.1580;0.5011;-0.8047;-0.0931;-0.4538;0.2967;-0.6806;
17.1590;4.8826;-3.0394;0.5750;-0.4538;0.2967;-0.6806;
17.2230;4.8826;-3.0394;0.5750;-0.4538;0.2967;-0.6806;
17.2240;4.8826;-3.0394;0.5750;-0.3141;0.2792;-0.5061;
17.2240;0.2750;-2.6747;-6.4369;-0.3141;0.2792;-0.5061;
17.2250;0.2750;-2.6747;-6.4369;-0.3141;0.2792;-0.5061;
17.2860;0.2750;-2.6747;-6.4369;-0.3141;0.2792;-0.5061;
17.2890;0.2750;-2.6747;-6.4369;-0.3141;0.2792;-0.5061;
17.2900;0.2750;-2.6747;-6.4369;-0.2618;0.5410;-0.4363;
17.2900;-3.3582;-1.3541;1.5691;-0.2618;0.5410;-0.4363;
17.3520;-3.3582;-1.3541;1.5691;-0.2618;0.5410;-0.4363;
17.3550;-3.3582;-1.3541;1.5691;-0.2618;0.5410;-0.4363;
17.3550;-3.3582;-1.3541;1.5691;-0.2443;0.5410;-0.3316;
17.3560;-0.5424;4.4487;-0.1736;-0.2443;0.5410;-0.3316;
17.4180;-0.5424;4.4487;-0.1736;-0.2443;0.5410;-0.3316;
17.4210;-0.5424;4.4487;-0.1736;-0.2443;0.5410;-0.3316;
17.4210;-0.5424;4.4487;-0.1736;-0.6283;0.2269;-1.6231;
17.4220;-1.0825;4.9939;-3.1644;-0.6283;0.2269;-1.6231;
17.4840;-1.0825;4.9939;-3.1644;-0.6283;0.2269;-1.6231;
17.4870;-1.0825;4.9939;-3.1644;-0.6283;0.2269;-1.6231;
17.4870;-1.0825;4.9939;-3.1644;-1.3439;0.0349;-4.4679;
17.4880;-1.9854;4.7164;-3.8584;-1.3439;0.0349;-4.4679;
17.5510;-1.9854;4.7164;-3.8584;-1.3439;0.0349;-4.4679;
17.5530;-1.9854;4.7164;-3.8584;-1.3439;0.0349;-4.4679;
17.5530;-1.9854;4.7164;-3.8584;-1.1693;0.2792;-4.5552;
17.5540;-1.9479;-6.6193;13.9430;-1.1693;0.2792;-4.5552;
17.6170;-1.9479;-6.6193;13.9430;-1.1693;0.2792;-4.5552;
17.6190;-1.9479;-6.6193;13.9430;-1.1693;0.2792;-4.5552;
17.6190;-1.9479;-6.6193;13.9430;-0.6283;0.7679;-3.1590;
17.6200;-7.9704;0.1296;6.2743;-0.6283;0.7679;-3.1590;
17.6830;-7.9704;0.1296;6.2743;-0.6283;0.7679;-3.1590;
17.6850;-7.9704;0.1296;6.2743;-0.6283;0.7679;-3.1590;
17.6860;-7.9704;0.1296;6.2743;0.4189;0.8552;-0.2094;
17.6870;-0.1015;-6.5171;-2.2585;0.4189;0.8552;-0.2094;
17.7490;-0.1015;-6.5171;-2.2585;0.4189;0.8552;-0.2094;
17.7510;-0.1015;-6.5171;-2.2585;0.4189;0.8552;-0.2094;
17.7510;-0.1015;-6.5171;-2.2585;1.2915;0.6806;3.9094;
17.7520;-1.3206;3.8328;-5.6751;1.2915;0.6806;3.9094;
17.8160;-1.3206;3.8328;-5.6751;1.2915;0.6806;3.9094;
17.8180;-1.3206;3.8328;-5.6751;1.2915;0.6806;3.9094;
17.8190;-1.3206;3.8328;-5.6751;1.7802;0.4712;4.3632;
17.8200;5.0244;2.3820;-5.0593;1.7802;0.4712;4.3632;
17.8810;5.0244;2.3820;-5.0593;1.7802;0.4712;4.3632;
17.8830;5.0244;2.3820;-5.0593;1.7802;0.4712;4.3632;
17.8840;5.0244;2.3820;-5.0593;1.8500;0.0349;4.6424;
17.8850;0.7339;1.7337;-1.4404;1.8500;0.0349;4.6424;
17.9470;0.7339;1.7337;-1.4404;1.8500;0.0349;4.6424;
17.9490;0.7339;1.7337;-1.4404;1.8500;0.0349;4.6424;
17.9500;0.7339;1.7337;-1.4404;0.6283;0.0000;0.8028;
17.9510;-2.5354;2.9397;3.1696;0.6283;0.0000;0.8028;
18.0140;-2.5354;2.9397;3.1696;0.6283;0.0000;0.8028;
18.0160;-2.5354;2.9397;3.1696;0.6283;0.0000;0.8028;
18.0170;-2.5354;2.9397;3.1696;-0.2618;0.0174;0.0698;
18.0180;-1.1587;1.4899;-2.3250;-0.2618;0.0174;0.0698;
18.0790;-1.1587;1.4899;-2.3250;-0.2618;0.0174;0.0698;
18.0810;-1.1587;1.4899;-2.3250;-0.2618;0.0174;0.0698;
18.0820;-1.1587;1.4899;-2.3250;-0.8552;0.3141;-0.7330;
18.0830;0.8392;-0.9098;1.6444;-0.8552;0.3141;-0.7330;
18.1450;0.8392;-0.9098;1.6444;-0.8552;0.3141;-0.7330;
18.1480;0.8392;-0.9098;1.6444;-0.8552;0.3141;-0.7330;
18.1490;0.8392;-0.9098;1.6444;-0.8726;0.4538;-1.0646;
18.1500;4.3405;0.1990;-0.5784;-0.8726;0.4538;-1.0646;
18.2110;4.3405;0.1990;-0.5784;-0.8726;0.4538;-1.0646;
18.2130;4.3405;0.1990;-0.5784;-0.8726;0.4538;-1.0646;
18.2150;4.3405;0.1990;-0.5784;-0.6458;0.4014;-0.9948;
18.2160;3.8758;-3.2290;5.8218;-0.6458;0.4014;-0.9948;
18.2860;3.8758;-3.2290;5.8218;-0.6458;0.4014;-0.9948;
18.2920;3.8758;-3.2290;5.8218;-0.6458;0.4014;-0.9948;
18.2930;3.8758;-3.2290;5.8218;-0.3665;0.2269;-0.6981;
18.3170;4.7174;-1.5515;-6.7968;-0.3665;0.2269;-0.6981;
18.3430;4.7174;-1.5515;-6.7968;-0.3665;0.2269;-0.6981;
18.3450;4.7174;-1.5515;-6.7968;-0.3665;0.2269;-0.6981;
18.3460;4.7174;-1.5515;-6.7968;-0.1920;0.2094;-0.4887;
18.3470;0.1997;-4.2946;-2.9370;-0.1920;0.2094;-0.4887;
18.4090;0.1997;-4.2946;-2.9370;-0.1920;0.2094;-0.4887;
18.4110;0.1997;-4.2946;-2.9370;-0.1920;0.2094;-0.4887;
18.4120;0.1997;-4.2946;-2.9370;-0.1222;0.3141;-0.4189;
18.4130;-3.9546;0.7468;1.4951;-0.1222;0.3141;-0.4189;
18.4770;-3.9546;0.7468;1.4951;-0.1222;0.3141;-0.4189;
18.4780;-3.9546;0.7468;1.4951;-0.1222;0.3141;-0.4189;
18.4790;-3.9546;0.7468;1.4951;-0.1222;0.2618;-0.3490;
18.4810;-0.8500;5.9398;0.2474;-0.1222;0.2618;-0.3490;
18.5410;-0.8500;5.9398;0.2474;-0.1222;0.2618;-0.3490;
18.5440;-0.8500;5.9398;0.2474;-0.1222;0.2618;-0.3490;
18.5450;-0.8500;5.9398;0.2474;-0.1047;-0.2443;-0.2443;
18.5460;-1.1983;3.8923;-3.3707;-0.1047;-0.2443;-0.2443;
18.6070;-1.1983;3.8923;-3.3707;-0.1047;-0.2443;-0.2443;
18.6090;-1.1983;3.8923;-3.3707;-0.1047;-0.2443;-0.2443;
18.6100;-1.1983;3.8923;-3.3707;-1.0646;-0.3141;-4.1014;
18.6110;-2.4116;0.9786;-0.2802;-1.0646;-0.3141;-4.1014;
18.7530;-2.4116;0.9786;-0.2802;-1.0646;-0.3141;-4.1014;
18.7530;-2.4116;0.9786;-0.2802;-0.8377;0.6283;-4.1537;
18.7540;-2.4116;0.9786;-0.2802;-0.8377;0.6283;-4.1537;
18.7550;-2.4116;0.9786;-0.2802;-0.8377;0.6283;-4.1537;
18.7560;-6.5761;3.6740;-3.6413;-0.8377;0.6283;-4.1537;
18.7570;-6.5761;3.6740;-3.6413;-0.8377;0.6283;-4.1537;
18.7580;-6.5761;3.6740;-3.6413;-0.8377;0.6283;-4.1537;
18.7590;-6.5761;3.6740;-3.6413;-0.8377;0.6283;-4.1537;
18.7590;-6.5761;3.6740;-3.6413;-0.8377;0.6283;-4.1537;
18.8040;-6.5761;3.6740;-3.6413;-0.8377;0.6283;-4.1537;
18.8070;-6.5761;3.6740;-3.6413;-0.8377;0.6283;-4.1537;
18.8100;-6.5761;3.6740;-3.6413;1.3264;0.6283;4.2061;
18.8130;4.2674;-7.6427;-4.3738;1.3264;0.6283;4.2061;
18.8700;4.2674;-7.6427;-4.3738;1.3264;0.6283;4.2061;
18.8730;4.2674;-7.6427;-4.3738;1.3264;0.6283;4.2061;
18.8740;4.2674;-7.6427;-4.3738;1.7278;0.5934;4.7297;
18.8750;0.0185;4.1153;-6.9768;1.7278;0.5934;4.7297;
18.9410;0.0185;4.1153;-6.9768;1.7278;0.5934;4.7297;
18.9420;0.0185;4.1153;-6.9768;1.9373;0.3141;5.0788;
18.9430;4.6170;2.8010;-0.3478;1.9373;0.3141;5.0788;
18.9450;4.6170;2.8010;-0.3478;1.9373;0.3141;5.0788;
19.0020;4.6170;2.8010;-0.3478;1.9373;0.3141;5.0788;
19.0050;4.6170;2.8010;-0.3478;1.9373;0.3141;5.0788;
19.0060;4.6170;2.8010;-0.3478;1.2217;0.2269;2.5656;
19.0070;0.6137;0.2535;0.4240;1.2217;0.2269;2.5656;
19.0680;0.6137;0.2535;0.4240;1.2217;0.2269;2.5656;
19.0710;0.6137;0.2535;0.4240;1.2217;0.2269;2.5656;
19.0720;0.6137;0.2535;0.4240;-0.0349;0.1222;0.4538;
19.0720;-2.6615;1.6858;-0.8549;-0.0349;0.1222;0.4538;
19.1340;-2.6615;1.6858;-0.8549;-0.0349;0.1222;0.4538;
19.1370;-2.6615;1.6858;-0.8549;-0.0349;0.1222;0.4538;
19.1370;-2.6615;1.6858;-0.8549;-0.8028;0.2443;-0.4014;
19.1380;-0.3737;1.1257;-2.5203;-0.8028;0.2443;-0.4014;
19.2000;-0.3737;1.1257;-2.5203;-0.8028;0.2443;-0.4014;
19.2030;-0.3737;1.1257;-2.5203;-0.8028;0.2443;-0.4014;
19.2030;-0.3737;1.1257;-2.5203;-0.9948;0.4887;-0.9773;
19.2040;0.5364;-2.4447;-0.7767;-0.9948;0.4887;-0.9773;
19.2660;0.5364;-2.4447;-0.7767;-0.9948;0.4887;-0.9773;
19.2690;0.5364;-2.4447;-0.7767;-0.9948;0.4887;-0.9773;
19.2690;0.5364;-2.4447;-0.7767;-0.7505;0.4189;-0.9599;
19.2700;5.2429;-0.3715;0.4262;-0.7505;0.4189;-0.9599;
19.3320;5.2429;-0.3715;0.4262;-0.7505;0.4189;-0.9599;
19.3350;5.2429;-0.3715;0.4262;-0.7505;0.4189;-0.9599;
19.3350;5.2429;-0.3715;0.4262;-0.4887;0.1222;-0.6632;
19.3360;2.4719;-3.0227;5.8628;-0.4887;0.1222;-0.6632;
19.3980;2.4719;-3.0227;5.8628;-0.4887;0.1222;-0.6632;
19.4010;2.4719;-3.0227;5.8628;-0.4887;0.1222;-0.6632;
19.4010;2.4719;-3.0227;5.8628;-0.3141;0.0000;-0.4189;
19.4020;4.1799;-2.7247;-8.2676;-0.3141;0.0000;-0.4189;
19.4640;4.1799;-2.7247;-8.2676;-0.3141;0.0000;-0.4189;
19.4670;4.1799;-2.7247;-8.2676;-0.3141;0.0000;-0.4189;
19.4670;4.1799;-2.7247;-8.2676;-0.2094;0.1571;-0.3665;
19.4680;-3.0048;-5.5607;-0.2732;-0.2094;0.1571;-0.3665;
19.5310;-3.0048;-5.5607;-0.2732;-0.2094;0.1571;-0.3665;
19.5330;-3.0048;-5.5607;-0.2732;-0.2094;0.1571;-0.3665;
19.5330;-3.0048;-5.5607;-0.2732;-0.1920;0.4363;-0.3840;
19.5340;-0.9617;5.2781;-0.0346;-0.1920;0.4363;-0.3840;
19.5970;-0.9617;5.2781;-0.0346;-0.1920;0.4363;-0.3840;
19.5990;-0.9617;5.2781;-0.0346;-0.1920;0.4363;-0.3840;
19.5990;-0.9617;5.2781;-0.0346;-0.1745;0.3141;-0.3665;
19.6000;-0.1919;5.2863;-3.1902;-0.1745;0.3141;-0.3665;
19.6630;-0.1919;5.2863;-3.1902;-0.1745;0.3141;-0.3665;
19.6650;-0.1919;5.2863;-3.1902;-0.1745;0.3141;-0.3665;
19.6660;-0.1919;5.2863;-3.1902;-0.8203;0.0698;-4.4679;
19.6670;-1.7780;3.7640;-2.6662;-0.8203;0.0698;-4.4679;
19.7290;-1.7780;3.7640;-2.6662;-0.8203;0.0698;-4.4679;
19.7320;-1.7780;3.7640;-2.6662;-0.8203;0.0698;-4.4679;
19.7330;-1.7780;3.7640;-2.6662;-0.7679;0.0349;-4.4679;
19.7340;-1.7600;-1.1192;1.8667;-0.7679;0.0349;-4.4679;
19.7940;-1.7600;-1.1192;1.8667;-0.7679;0.0349;-4.4679;
19.7970;-1.7600;-1.1192;1.8667;-0.7679;0.0349;-4.4679;
19.7970;-1.7600;-1.1192;1.8667;-0.6632;0.3141;-4.4679;
19.7980;-2.8073;-7.4610;12.3609;-0.6632;0.3141;-4.4679;
19.8620;-2.8073;-7.4610;12.3609;-0.6632;0.3141;-4.4679;
19.8630;-2.8073;-7.4610;12.3609;-0.6632;0.3141;-4.4679;
19.8640;-2.8073;-7.4610;12.3609;-0.0872;0.6283;-1.5882;
19.8650;-3.7984;1.7926;-5.0819;-0.0872;0.6283;-1.5882;
19.9270;-3.7984;1.7926;-5.0819;-0.0872;0.6283;-1.5882;
19.9290;-3.7984;1.7926;-5.0819;-0.0872;0.6283;-1.5882;
19.9300;-3.7984;1.7926;-5.0819;0.6981;0.4887;2.4608;
19.9310;-0.9906;2.1128;-6.4714;0.6981;0.4887;2.4608;
19.9950;-0.9906;2.1128;-6.4714;0.6981;0.4887;2.4608;
20.0050;-0.9906;2.1128;-6.4714;0.6981;0.4887;2.4608;
20.0070;-0.9906;2.1128;-6.4714;1.2042;0.3490;3.9967;
20.0100;7.2229;0.6076;-2.7636;1.2042;0.3490;3.9967;
20.0620;7.2229;0.6076;-2.7636;1.2042;0.3490;3.9967;
20.0650;7.2229;0.6076;-2.7636;1.2042;0.3490;3.9967;
20.0670;7.2229;0.6076;-2.7636;1.3264;0.1222;4.2061;
20.0700;-0.0972;0.6845;14.4441;1.3264;0.1222;4.2061;
20.1250;-0.0972;0.6845;14.4441;1.3264;0.1222;4.2061;
20.1270;-0.0972;0.6845;14.4441;1.3264;0.1222;4.2061;
20.1290;-0.0972;0.6845;14.4441;1.2217;-0.1745;4.3108;
20.1300;-0.3097;1.1702;-0.8425;1.2217;-0.1745;4.3108;
20.1920;-0.3097;1.1702;-0.8425;1.2217;-0.1745;4.3108;
20.1930;-0.3097;1.1702;-0.8425;1.2217;-0.1745;4.3108;
20.1940;-0.3097;1.1702;-0.8425;0.3316;-0.2792;0.4887;
20.1950;-1.2565;2.0726;-0.0168;0.3316;-0.2792;0.4887;
20.2570;-1.2565;2.0726;-0.0168;0.3316;-0.2792;0.4887;
20.2590;-1.2565;2.0726;-0.0168;0.3316;-0.2792;0.4887;
20.2600;-1.2565;2.0726;-0.0168;-0.4887;-0.1396;-0.2967;
20.2610;0.4834;-1.1897;-2.0590;-0.4887;-0.1396;-0.2967;
20.3280;0.4834;-1.1897;-2.0590;-0.4887;-0.1396;-0.2967;
20.3290;0.4834;-1.1897;-2.0590;-0.6108;0.1920;-0.6806;
20.3300;2.4503;0.5148;4.5687;-0.6108;0.1920;-0.6806;
20.3310;2.4503;0.5148;4.5687;-0.6108;0.1920;-0.6806;
20.3910;2.4503;0.5148;4.5687;-0.6108;0.1920;-0.6806;
20.3920;2.4503;0.5148;4.5687;-0.6108;0.1920;-0.6806;
20.3930;2.4503;0.5148;4.5687;-0.5236;0.2792;-0.7330;
20.3940;3.7426;-2.5959;0.5567;-0.5236;0.2792;-0.7330;
20.4540;3.7426;-2.5959;0.5567;-0.5236;0.2792;-0.7330;
20.4570;3.7426;-2.5959;0.5567;-0.5236;0.2792;-0.7330;
20.4580;3.7426;-2.5959;0.5567;-0.3490;0.2269;-0.6108;
20.4590;2.2244;-2.7295;-1.7323;-0.3490;0.2269;-0.6108;
20.5210;2.2244;-2.7295;-1.7323;-0.3490;0.2269;-0.6108;
20.5240;2.2244;-2.7295;-1.7323;-0.3490;0.2269;-0.6108;
20.5250;2.2244;-2.7295;-1.7323;-0.2443;0.2792;-0.4712;
20.5270;-1.2523;-4.9274;-3.3572;-0.2443;0.2792;-0.4712;
20.5870;-1.2523;-4.9274;-3.3572;-0.2443;0.2792;-0.4712;
20.5900;-1.2523;-4.9274;-3.3572;-0.2443;0.2792;-0.4712;
20.5910;-1.2523;-4.9274;-3.3572;-0.1920;0.4712;-0.3840;
20.5920;-3.6340;1.5196;2.6134;-0.1920;0.4712;-0.3840;
20.6540;-3.6340;1.5196;2.6134;-0.1920;0.4712;-0.3840;
20.6550;-3.6340;1.5196;2.6134;-0.1920;0.4712;-0.3840;
20.6580;-3.6340;1.5196;2.6134;-0.1920;0.4189;-0.3490;
20.6600;-0.2211;5.3327;-0.7500;-0.1920;0.4189;-0.3490;
20.7200;-0.2211;5.3327;-0.7500;-0.1920;0.4189;-0.3490;
20.7220;-0.2211;5.3327;-0.7500;-0.1920;0.4189;-0.3490;
20.7230;-0.2211;5.3327;-0.7500;-0.9773;0.1222;-3.0891;
20.7240;-1.3238;3.5012;-2.1362;-0.9773;0.1222;-3.0891;
20.7850;-1.3238;3.5012;-2.1362;-0.9773;0.1222;-3.0891;
20.7870;-1.3238;3.5012;-2.1362;-0.9773;0.1222;-3.0891;
20.7890;-1.3238;3.5012;-2.1362;-1.2566;0.0524;-4.3632;
20.7950;-3.7369;3.6068;-3.3482;-1.2566;0.0524;-4.3632;
20.8510;-3.7369;3.6068;-3.3482;-1.2566;0.0524;-4.3632;
20.8530;-3.7369;3.6068;-3.3482;-1.2566;0.0524;-4.3632;
20.8540;-3.7369;3.6068;-3.3482;-1.0646;0.2967;-4.4155;
20.8560;-1.0647;-6.3416;16.4941;-1.0646;0.2967;-4.4155;
20.9160;-1.0647;-6.3416;16.4941;-1.0646;0.2967;-4.4155;
20.9190;-1.0647;-6.3416;16.4941;-1.0646;0.2967;-4.4155;
20.9200;-1.0647;-6.3416;16.4941;-0.0174;0.9424;-1.5707;
20.9210;-6.2470;3.5042;2.5617;-0.0174;0.9424;-1.5707;
20.9830;-6.2470;3.5042;2.5617;-0.0174;0.9424;-1.5707;
20.9880;-6.2470;3.5042;2.5617;-0.0174;0.9424;-1.5707;
20.9890;-6.2470;3.5042;2.5617;0.8377;0.9075;1.0472;
20.9900;2.2671;-6.2835;-4.3702;0.8377;0.9075;1.0472;
21.0520;2.2671;-6.2835;-4.3702;0.8377;0.9075;1.0472;
21.0530;2.2671;-6.2835;-4.3702;1.5184;0.6458;3.8396;
21.0540;-0.4897;2.2733;-5.3219;1.5184;0.6458;3.8396;
21.0550;-0.4897;2.2733;-5.3219;1.5184;0.6458;3.8396;
21.1140;-0.4897;2.2733;-5.3219;1.5184;0.6458;3.8396;
21.1230;-0.4897;2.2733;-5.3219;1.5184;0.6458;3.8396;
21.1240;-0.4897;2.2733;-5.3219;1.9023;0.2269;4.3806;
21.1250;5.3371;0.5413;3.1454;1.9023;0.2269;4.3806;
21.1820;5.3371;0.5413;3.1454;1.9023;0.2269;4.3806;
21.1840;5.3371;0.5413;3.1454;1.9023;0.2269;4.3806;
21.1840;5.3371;0.5413;3.1454;1.4311;0.0000;3.2811;
21.1850;0.2820;0.8243;1.8914;1.4311;0.0000;3.2811;
21.2500;0.2820;0.8243;1.8914;1.4311;0.0000;3.2811;
21.2510;0.2820;0.8243;1.8914;0.3141;-0.0524;0.4712;
21.2530;-3.2839;2.2216;0.8811;0.3141;-0.0524;0.4712;
21.2550;-3.2839;2.2216;0.8811;0.3141;-0.0524;0.4712;
21.3120;-3.2839;2.2216;0.8811;0.3141;-0.0524;0.4712;
21.3150;-3.2839;2.2216;0.8811;0.3141;-0.0524;0.4712;
21.3160;-3.2839;2.2216;0.8811;-0.4887;0.0000;-0.1745;
21.3170;-0.1057;2.1759;-3.1786;-0.4887;0.0000;-0.1745;
21.3780;-0.1057;2.1759;-3.1786;-0.4887;0.0000;-0.1745;
21.3810;-0.1057;2.1759;-3.1786;-0.4887;0.0000;-0.1745;
21.3820;-0.1057;2.1759;-3.1786;-0.7854;0.2967;-0.8377;
21.3830;1.0618;-0.8670;-0.4236;-0.7854;0.2967;-0.8377;
21.4440;1.0618;-0.8670;-0.4236;-0.7854;0.2967;-0.8377;
21.4470;1.0618;-0.8670;-0.4236;-0.7854;0.2967;-0.8377;
21.4480;1.0618;-0.8670;-0.4236;-0.6283;0.3490;-0.8901;
21.4490;3.9858;-0.0063;1.7535;-0.6283;0.3490;-0.8901;
21.5100;3.9858;-0.0063;1.7535;-0.6283;0.3490;-0.8901;
21.5130;3.9858;-0.0063;1.7535;-0.6283;0.3490;-0.8901;
21.5140;3.9858;-0.0063;1.7535;-0.3840;0.2094;-0.6981;
21.5150;1.0775;-2.8238;3.8655;-0.3840;0.2094;-0.6981;
21.5760;1.0775;-2.8238;3.8655;-0.3840;0.2094;-0.6981;
21.5790;1.0775;-2.8238;3.8655;-0.3840;0.2094;-0.6981;
21.5800;1.0775;-2.8238;3.8655;-0.2618;0.0524;-0.5236;
21.5810;5.6819;-0.8033;-7.5254;-0.2618;0.0524;-0.5236;
21.6430;5.6819;-0.8033;-7.5254;-0.2618;0.0524;-0.5236;
21.6450;5.6819;-0.8033;-7.5254;-0.2618;0.0524;-0.5236;
21.6460;5.6819;-0.8033;-7.5254;-0.1920;0.0698;-0.4189;
21.6470;-0.5493;-4.0631;-2.1397;-0.1920;0.0698;-0.4189;
21.7090;-0.5493;-4.0631;-2.1397;-0.1920;0.0698;-0.4189;
21.7110;-0.5493;-4.0631;-2.1397;-0.1920;0.0698;-0.4189;
21.7130;-0.5493;-4.0631;-2.1397;-0.1396;0.2618;-0.3665;
21.7140;-3.0412;-0.2544;3.4756;-0.1396;0.2618;-0.3665;
21.7740;-3.0412;-0.2544;3.4756;-0.1396;0.2618;-0.3665;
21.7770;-3.0412;-0.2544;3.4756;-0.1396;0.2618;-0.3665;
21.7780;-3.0412;-0.2544;3.4756;-0.1047;0.2443;-0.2618;
21.7790;-0.1678;5.3332;-1.8131;-0.1047;0.2443;-0.2618;
21.8420;-0.1678;5.3332;-1.8131;-0.1047;0.2443;-0.2618;
21.8430;-0.1678;5.3332;-1.8131;-0.1047;0.2443;-0.2618;
21.8440;-0.1678;5.3332;-1.8131;-0.6283;-0.0349;-1.7802;
21.8450;-1.5680;4.5460;-3.5099;-0.6283;-0.0349;-1.7802;
21.9080;-1.5680;4.5460;-3.5099;-0.6283;-0.0349;-1.7802;
21.9130;-1.5680;4.5460;-3.5099;-0.6283;-0.0349;-1.7802;
21.9190;-1.5680;4.5460;-3.5099;-1.4311;-0.1047;-4.4505;
21.9270;-3.4114;3.5349;-1.3254;-1.4311;-0.1047;-4.4505;
21.9730;-3.4114;3.5349;-1.3254;-1.4311;-0.1047;-4.4505;
21.9750;-3.4114;3.5349;-1.3254;-1.4311;-0.1047;-4.4505;
21.9760;-3.4114;3.5349;-1.3254;-1.3613;0.1396;-4.4505;
21.9770;-2.0874;-8.8877;14.4596;-1.3613;0.1396;-4.4505;
22.0390;-2.0874;-8.8877;14.4596;-1.3613;0.1396;-4.4505;
22.0420;-2.0874;-8.8877;14.4596;-1.3613;0.1396;-4.4505;
22.0440;-2.0874;-8.8877;14.4596;-1.2740;0.7156;-4.4505;
22.0450;-7.5010;3.0627;4.1398;-1.2740;0.7156;-4.4505;
22.1050;-7.5010;3.0627;4.1398;-1.2740;0.7156;-4.4505;
22.1070;-7.5010;3.0627;4.1398;-1.2740;0.7156;-4.4505;
22.1080;-7.5010;3.0627;4.1398;0.3840;0.8377;-0.1396;
22.1090;3.1312;-4.8113;-3.5604;0.3840;0.8377;-0.1396;
22.1720;3.1312;-4.8113;-3.5604;0.3840;0.8377;-0.1396;
22.1730;3.1312;-4.8113;-3.5604;0.3840;0.8377;-0.1396;
22.1750;3.1312;-4.8113;-3.5604;1.3613;0.6458;3.7872;
22.1760;-0.7871;3.0880;-3.2612;1.3613;0.6458;3.7872;
22.2380;-0.7871;3.0880;-3.2612;1.3613;0.6458;3.7872;
22.2390;-0.7871;3.0880;-3.2612;1.3613;0.6458;3.7872;
22.2400;-0.7871;3.0880;-3.2612;1.9023;0.2618;4.2934;
22.2430;4.2265;-0.7959;3.7819;1.9023;0.2618;4.2934;
22.3030;4.2265;-0.7959;3.7819;1.9023;0.2618;4.2934;
22.3050;4.2265;-0.7959;3.7819;1.9023;0.2618;4.2934;
22.3060;4.2265;-0.7959;3.7819;1.8151;0.0698;4.4155;
22.3070;0.2204;0.5374;1.0838;1.8151;0.0698;4.4155;
22.3700;0.2204;0.5374;1.0838;1.8151;0.0698;4.4155;
22.3720;0.2204;0.5374;1.0838;1.8151;0.0698;4.4155;
22.3740;0.2204;0.5374;1.0838;0.5236;0.0524;0.5759;
22.3760;-3.9375;3.1668;0.5769;0.5236;0.0524;0.5759;
22.4350;-3.9375;3.1668;0.5769;0.5236;0.0524;0.5759;
22.4380;-3.9375;3.1668;0.5769;0.5236;0.0524;0.5759;
22.4390;-3.9375;3.1668;0.5769;-0.2443;0.0349;-0.0174;
22.4400;-0.2655;1.3854;-3.1007;-0.2443;0.0349;-0.0174;
22.5030;-0.2655;1.3854;-3.1007;-0.2443;0.0349;-0.0174;
22.5040;-0.2655;1.3854;-3.1007;-0.2443;0.0349;-0.0174;
22.5060;-0.2655;1.3854;-3.1007;-0.6806;0.2094;-0.6283;
22.5070;3.1662;0.0336;3.5785;-0.6806;0.2094;-0.6283;
22.5670;3.1662;0.0336;3.5785;-0.6806;0.2094;-0.6283;
22.5690;3.1662;0.0336;3.5785;-0.6806;0.2094;-0.6283;
22.5700;3.1662;0.0336;3.5785;-0.5759;0.2094;-0.6806;
22.5710;3.6184;0.0187;1.2100;-0.5759;0.2094;-0.6806;
22.6330;3.6184;0.0187;1.2100;-0.5759;0.2094;-0.6806;
22.6350;3.6184;0.0187;1.2100;-0.5759;0.2094;-0.6806;
22.6360;3.6184;0.0187;1.2100;-0.3840;0.1222;-0.5585;
22.6370;1.6541;-4.8761;6.2208;-0.3840;0.1222;-0.5585;
22.6980;1.6541;-4.8761;6.2208;-0.3840;0.1222;-0.5585;
22.7010;1.6541;-4.8761;6.2208;-0.3840;0.1222;-0.5585;
22.7020;1.6541;-4.8761;6.2208;-0.2792;0.1222;-0.4712;
22.7030;5.6619;-1.9748;-8.6816;-0.2792;0.1222;-0.4712;
22.7650;5.6619;-1.9748;-8.6816;-0.2792;0.1222;-0.4712;
22.7720;5.6619;-1.9748;-8.6816;-0.2792;0.1222;-0.4712;
22.7730;5.6619;-1.9748;-8.6816;-0.2443;0.4712;-0.5061;
22.7740;-4.2600;-3.3235;0.4548;-0.2443;0.4712;-0.5061;
22.8310;-4.2600;-3.3235;0.4548;-0.2443;0.4712;-0.5061;
22.8330;-4.2600;-3.3235;0.4548;-0.2443;0.4712;-0.5061;
22.8340;-4.2600;-3.3235;0.4548;-0.2618;0.5934;-0.5061;
22.8350;-2.8844;3.4626;0.4775;-0.2618;0.5934;-0.5061;
22.8960;-2.8844;3.4626;0.4775;-0.2618;0.5934;-0.5061;
22.8990;-2.8844;3.4626;0.4775;-0.2618;0.5934;-0.5061;
22.9000;-2.8844;3.4626;0.4775;-0.2269;0.3490;-0.3490;
22.9010;-1.1728;5.5996;-2.4507;-0.2269;0.3490;-0.3490;
22.9620;-1.1728;5.5996;-2.4507;-0.2269;0.3490;-0.3490;
22.9650;-1.1728;5.5996;-2.4507;-0.2269;0.3490;-0.3490;
22.9660;-1.1728;5.5996;-2.4507;-0.1571;-0.4712;-0.1571;
22.9670;-2.5595;4.4352;-5.0419;-0.1571;-0.4712;-0.1571;
23.0280;-2.5595;4.4352;-5.0419;-0.1571;-0.4712;-0.1571;
23.0360;-2.5595;4.4352;-5.0419;-0.1571;-0.4712;-0.1571;
23.0360;-2.5595;4.4352;-5.0419;-1.2566;-0.5759;-4.0665;
23.0370;-1.0143;-7.3324;14.6327;-1.2566;-0.5759;-4.0665;
23.0940;-1.0143;-7.3324;14.6327;-1.2566;-0.5759;-4.0665;
23.0970;-1.0143;-7.3324;14.6327;-1.2566;-0.5759;-4.0665;
23.0980;-1.0143;-7.3324;14.6327;-1.2391;-0.0698;-4.1363;
23.0980;-6.0338;-5.2112;8.8726;-1.2391;-0.0698;-4.1363;
23.1600;-6.0338;-5.2112;8.8726;-1.2391;-0.0698;-4.1363;
23.1630;-6.0338;-5.2112;8.8726;-1.2391;-0.0698;-4.1363;
23.1640;-6.0338;-5.2112;8.8726;-1.1519;0.5934;-4.2410;
23.1650;-5.1290;3.9120;-1.5523;-1.1519;0.5934;-4.2410;
23.2260;-5.1290;3.9120;-1.5523;-1.1519;0.5934;-4.2410;
23.2290;-5.1290;3.9120;-1.5523;-1.1519;0.5934;-4.2410;
23.2300;-5.1290;3.9120;-1.5523;1.4137;0.7330;3.5953;
23.2310;2.7582;-4.4419;-3.1712;1.4137;0.7330;3.5953;
23.2930;2.7582;-4.4419;-3.1712;1.4137;0.7330;3.5953;
23.2950;2.7582;-4.4419;-3.1712;1.4137;0.7330;3.5953;
23.2960;2.7582;-4.4419;-3.1712;1.9722;0.4363;4.1363;
23.2960;-0.4975;6.9939;-4.5223;1.9722;0.4363;4.1363;
23.3580;-0.4975;6.9939;-4.5223;1.9722;0.4363;4.1363;
23.3610;-0.4975;6.9939;-4.5223;1.9722;0.4363;4.1363;
23.3610;-0.4975;6.9939;-4.5223;2.1467;0.0349;4.4330;
23.3620;4.2164;-0.5069;2.7076;2.1467;0.0349;4.4330;
23.4240;4.2164;-0.5069;2.7076;2.1467;0.0349;4.4330;
23.4270;4.2164;-0.5069;2.7076;2.1467;0.0349;4.4330;
23.4270;4.2164;-0.5069;2.7076;0.8901;0.0349;0.8203;
23.4280;-2.1529;2.2298;1.6728;0.8901;0.0349;0.8203;
23.4900;-2.1529;2.2298;1.6728;0.8901;0.0349;0.8203;
23.4930;-2.1529;2.2298;1.6728;0.8901;0.0349;0.8203;
23.4930;-2.1529;2.2298;1.6728;-0.0524;0.1745;0.0524;
23.4940;-1.2046;1.8514;-3.4871;-0.0524;0.1745;0.0524;
23.5570;-1.2046;1.8514;-3.4871;-0.0524;0.1745;0.0524;
23.5590;-1.2046;1.8514;-3.4871;-0.0524;0.1745;0.0524;
23.5590;-1.2046;1.8514;-3.4871;-0.6981;0.4712;-0.6981;
23.5600;-0.5148;0.2259;-2.7880;-0.6981;0.4712;-0.6981;
23.6240;-0.5148;0.2259;-2.7880;-0.6981;0.4712;-0.6981;
23.6250;-0.5148;0.2259;-2.7880;-0.6981;0.4712;-0.6981;
23.6260;-0.5148;0.2259;-2.7880;-0.8203;0.5934;-0.9948;
23.6270;4.2495;-0.4120;5.0844;-0.8203;0.5934;-0.9948;
23.6890;4.2495;-0.4120;5.0844;-0.8203;0.5934;-0.9948;
23.6910;4.2495;-0.4120;5.0844;-0.8203;0.5934;-0.9948;
23.6930;4.2495;-0.4120;5.0844;-0.7156;0.4538;-0.9424;
23.6940;3.2647;-1.2302;-0.2434;-0.7156;0.4538;-0.9424;
23.7540;3.2647;-1.2302;-0.2434;-0.7156;0.4538;-0.9424;
23.7570;3.2647;-1.2302;-0.2434;-0.7156;0.4538;-0.9424;
23.7580;3.2647;-1.2302;-0.2434;-0.5410;0.2094;-0.6632;
23.7590;4.7525;-3.5791;0.9079;-0.5410;0.2094;-0.6632;
23.8220;4.7525;-3.5791;0.9079;-0.5410;0.2094;-0.6632;
23.8230;4.7525;-3.5791;0.9079;-0.5410;0.2094;-0.6632;
23.8240;4.7525;-3.5791;0.9079;-0.4538;0.1396;-0.5236;
23.8250;4.3719;-3.5511;-7.6402;-0.4538;0.1396;-0.5236;
23.8870;4.3719;-3.5511;-7.6402;-0.4538;0.1396;-0.5236;
23.8890;4.3719;-3.5511;-7.6402;-0.4538;0.1396;-0.5236;
23.8900;4.3719;-3.5511;-7.6402;-0.4189;0.3665;-0.5061;
23.8910;-5.5084;-3.9671;0.9115;-0.4189;0.3665;-0.5061;
23.9540;-5.5084;-3.9671;0.9115;-0.4189;0.3665;-0.5061;
23.9570;-5.5084;-3.9671;0.9115;-0.4189;0.3665;-0.5061;
23.9630;-5.5084;-3.9671;0.9115;-0.4189;0.5410;-0.5236;
23.9670;-1.6281;4.5140;2.6251;-0.4189;0.5410;-0.5236;
24.0220;-1.6281;4.5140;2.6251;-0.4189;0.5410;-0.5236;
24.0250;-1.6281;4.5140;2.6251;-0.4189;0.5410;-0.5236;
24.0270;-1.6281;4.5140;2.6251;-0.4363;0.4189;-0.5236;
24.0300;-1.1766;4.9895;-3.1522;-0.4363;0.4189;-0.5236;
24.0850;-1.1766;4.9895;-3.1522;-0.4363;0.4189;-0.5236;
24.0870;-1.1766;4.9895;-3.1522;-0.4363;0.4189;-0.5236;
24.0880;-1.1766;4.9895;-3.1522;-1.2391;0.1222;-4.3457;
24.0890;-2.0051;4.4301;-6.3544;-1.2391;0.1222;-4.3457;
24.1520;-2.0051;4.4301;-6.3544;-1.2391;0.1222;-4.3457;
24.1540;-2.0051;4.4301;-6.3544;-1.2391;0.1222;-4.3457;
24.1550;-2.0051;4.4301;-6.3544;-1.1519;0.1222;-4.3457;
24.1560;1.1540;-3.9343;12.0507;-1.1519;0.1222;-4.3457;
24.2170;1.1540;-3.9343;12.0507;-1.1519;0.1222;-4.3457;
24.2200;1.1540;-3.9343;12.0507;-1.1519;0.1222;-4.3457;
24.2210;1.1540;-3.9343;12.0507;-0.9250;0.4712;-4.3806;
24.2230;-5.0863;-5.3019;12.2346;-0.9250;0.4712;-4.3806;
24.2830;-5.0863;-5.3019;12.2346;-0.9250;0.4712;-4.3806;
24.2860;-5.0863;-5.3019;12.2346;-0.9250;0.4712;-4.3806;
24.2870;-5.0863;-5.3019;12.2346;-0.0349;0.8901;-1.6755;
24.2880;-2.8681;-0.9796;-3.3327;-0.0349;0.8901;-1.6755;
24.3500;-2.8681;-0.9796;-3.3327;-0.0349;0.8901;-1.6755;
24.3520;-2.8681;-0.9796;-3.3327;-0.0349;0.8901;-1.6755;
24.3530;-2.8681;-0.9796;-3.3327;0.9075;0.7156;2.1467;
24.3540;-1.8710;5.3738;-4.2895;0.9075;0.7156;2.1467;
24.4150;-1.8710;5.3738;-4.2895;0.9075;0.7156;2.1467;
24.4180;-1.8710;5.3738;-4.2895;0.9075;0.7156;2.1467;
24.4190;-1.8710;5.3738;-4.2895;1.3264;0.4887;3.6302;
24.4200;7.1407;0.1037;-3.3627;1.3264;0.4887;3.6302;
24.4820;7.1407;0.1037;-3.3627;1.3264;0.4887;3.6302;
24.4840;7.1407;0.1037;-3.3627;1.3264;0.4887;3.6302;
24.4850;7.1407;0.1037;-3.3627;1.4311;0.1396;3.9967;
24.4860;0.3484;2.2681;2.6944;1.4311;0.1396;3.9967;
24.5470;0.3484;2.2681;2.6944;1.4311;0.1396;3.9967;
24.5500;0.3484;2.2681;2.6944;1.4311;0.1396;3.9967;
24.5510;0.3484;2.2681;2.6944;0.9250;0.0000;2.9321;
24.5520;-1.3093;1.4577;0.6997;0.9250;0.0000;2.9321;
24.6130;-1.3093;1.4577;0.6997;0.9250;0.0000;2.9321;
24.6150;-1.3093;1.4577;0.6997;0.9250;0.0000;2.9321;
24.6160;-1.3093;1.4577;0.6997;0.0872;0.0174;0.2094;
24.6170;-0.9508;1.9496;-2.5843;0.0872;0.0174;0.2094;
24.6800;-0.9508;1.9496;-2.5843;0.0872;0.0174;0.2094;
24.6820;-0.9508;1.9496;-2.5843;0.0872;0.0174;0.2094;
24.6830;-0.9508;1.9496;-2.5843;-0.4712;0.2269;-0.4538;
24.6840;-0.3532;-0.9190;-1.6387;-0.4712;0.2269;-0.4538;
24.7460;-0.3532;-0.9190;-1.6387;-0.4712;0.2269;-0.4538;
24.7480;-0.3532;-0.9190;-1.6387;-0.4712;0.2269;-0.4538;
24.7490;-0.3532;-0.9190;-1.6387;-0.6283;0.5061;-0.8901;
24.7510;3.6564;-0.2964;3.5203;-0.6283;0.5061;-0.8901;
24.8130;3.6564;-0.2964;3.5203;-0.6283;0.5061;-0.8901;
24.8150;3.6564;-0.2964;3.5203;-0.6283;0.5061;-0.8901;
24.8160;3.6564;-0.2964;3.5203;-0.5410;0.4538;-0.9075;
24.8170;3.6821;-1.5367;0.3059;-0.5410;0.4538;-0.9075;
24.8770;3.6821;-1.5367;0.3059;-0.5410;0.4538;-0.9075;
24.8810;3.6821;-1.5367;0.3059;-0.5410;0.4538;-0.9075;
24.8820;3.6821;-1.5367;0.3059;-0.3840;0.1396;-0.6108;
24.8830;-0.0084;-1.7566;-3.8342;-0.3840;0.1396;-0.6108;
24.9440;-0.0084;-1.7566;-3.8342;-0.3840;0.1396;-0.6108;
24.9450;-0.0084;-1.7566;-3.8342;-0.3840;0.1396;-0.6108;
24.9460;-0.0084;-1.7566;-3.8342;-0.3141;0.0872;-0.4712;
24.9470;-0.8966;-5.1253;-5.0140;-0.3141;0.0872;-0.4712;
25.0090;-0.8966;-5.1253;-5.0140;-0.3141;0.0872;-0.4712;
25.0110;-0.8966;-5.1253;-5.0140;-0.3141;0.0872;-0.4712;
25.0120;-0.8966;-5.1253;-5.0140;-0.2618;0.2269;-0.4014;
25.0130;-1.6881;0.1092;3.8924;-0.2618;0.2269;-0.4014;
25.0740;-1.6881;0.1092;3.8924;-0.2618;0.2269;-0.4014;
25.0770;-1.6881;0.1092;3.8924;-0.2618;0.2269;-0.4014;
25.0780;-1.6881;0.1092;3.8924;-0.1920;0.1047;-0.2967;
25.0790;-0.8322;5.6682;-1.3337;-0.1920;0.1047;-0.2967;
25.1400;-0.8322;5.6682;-1.3337;-0.1920;0.1047;-0.2967;
25.1470;-0.8322;5.6682;-1.3337;-0.1920;0.1047;-0.2967;
25.1480;-0.8322;5.6682;-1.3337;-0.8726;-0.1222;-2.9844;
25.1490;-1.8886;4.6398;-3.6108;-0.8726;-0.1222;-2.9844;
25.2060;-1.8886;4.6398;-3.6108;-0.8726;-0.1222;-2.9844;
25.2090;-1.8886;4.6398;-3.6108;-0.8726;-0.1222;-2.9844;
25.2110;-1.8886;4.6398;-3.6108;-1.1693;-0.1047;-4.3981;
25.2120;-1.9206;4.1216;-2.2461;-1.1693;-0.1047;-4.3981;
25.2760;-1.9206;4.1216;-2.2461;-1.1693;-0.1047;-4.3981;
25.2770;-1.9206;4.1216;-2.2461;-1.0472;0.2792;-4.4505;
25.2780;-1.2599;-6.9317;16.0670;-1.0472;0.2792;-4.4505;
25.2820;-1.2599;-6.9317;16.0670;-1.0472;0.2792;-4.4505;
25.3390;-1.2599;-6.9317;16.0670;-1.0472;0.2792;-4.4505;
25.3410;-1.2599;-6.9317;16.0670;-1.0472;0.2792;-4.4505;
25.3420;-1.2599;-6.9317;16.0670;-0.1222;0.9599;-1.5882;
25.3420;-10.7020;3.6928;3.7823;-0.1222;0.9599;-1.5882;
25.4040;-10.7020;3.6928;3.7823;-0.1222;0.9599;-1.5882;
25.4070;-10.7020;3.6928;3.7823;-0.1222;0.9599;-1.5882;
25.4070;-10.7020;3.6928;3.7823;0.7505;0.8726;1.2391;
25.4080;-1.0258;-2.2876;-2.3161;0.7505;0.8726;1.2391;
25.4710;-1.0258;-2.2876;-2.3161;0.7505;0.8726;1.2391;
25.4730;-1.0258;-2.2876;-2.3161;0.7505;0.8726;1.2391;
25.4730;-1.0258;-2.2876;-2.3161;1.4835;0.6458;4.0839;
25.4740;3.2367;-4.4160;-2.8334;1.4835;0.6458;4.0839;
25.5370;3.2367;-4.4160;-2.8334;1.4835;0.6458;4.0839;
25.5390;3.2367;-4.4160;-2.8334;1.4835;0.6458;4.0839;
25.5390;3.2367;-4.4160;-2.8334;2.0420;0.3490;4.5726;
25.5400;2.2684;5.2116;-7.5614;2.0420;0.3490;4.5726;
25.6030;2.2684;5.2116;-7.5614;2.0420;0.3490;4.5726;
25.6050;2.2684;5.2116;-7.5614;2.0420;0.3490;4.5726;
25.6050;2.2684;5.2116;-7.5614;1.7802;-0.0174;3.7174;
25.6070;1.3631;2.0334;0.7248;1.7802;-0.0174;3.7174;
25.6690;1.3631;2.0334;0.7248;1.7802;-0.0174;3.7174;
25.6710;1.3631;2.0334;0.7248;1.7802;-0.0174;3.7174;
25.6720;1.3631;2.0334;0.7248;0.6981;-0.1396;0.8726;
25.6730;-3.0012;2.1414;0.9130;0.6981;-0.1396;0.8726;
25.7350;-3.0012;2.1414;0.9130;0.6981;-0.1396;0.8726;
25.7370;-3.0012;2.1414;0.9130;0.6981;-0.1396;0.8726;
25.7380;-3.0012;2.1414;0.9130;-0.2967;-0.1047;0.0349;
25.7390;-1.0553;1.6567;-2.4559;-0.2967;-0.1047;0.0349;
25.8020;-1.0553;1.6567;-2.4559;-0.2967;-0.1047;0.0349;
25.8030;-1.0553;1.6567;-2.4559;-0.2967;-0.1047;0.0349;
25.8040;-1.0553;1.6567;-2.4559;-0.9075;0.1571;-0.7156;
25.8050;0.6038;-0.8882;-0.9738;-0.9075;0.1571;-0.7156;
25.8780;0.6038;-0.8882;-0.9738;-0.9075;0.1571;-0.7156;
25.8790;0.6038;-0.8882;-0.9738;-0.9075;0.1571;-0.7156;
25.8800;0.6038;-0.8882;-0.9738;-0.9599;0.3141;-1.0297;
25.8850;3.4935;-0.8627;2.3107;-0.9599;0.3141;-1.0297;
25.9330;3.4935;-0.8627;2.3107;-0.9599;0.3141;-1.0297;
25.9350;3.4935;-0.8627;2.3107;-0.9599;0.3141;-1.0297;
25.9360;3.4935;-0.8627;2.3107;-0.6806;0.2443;-0.9424;
25.9370;2.7029;-3.4499;3.0982;-0.6806;0.2443;-0.9424;
25.9990;2.7029;-3.4499;3.0982;-0.6806;0.2443;-0.9424;
26.0020;2.7029;-3.4499;3.0982;-0.6806;0.2443;-0.9424;
26.0040;2.7029;-3.4499;3.0982;-0.4189;0.0698;-0.6806;
26.0050;5.3532;-0.7811;-7.6393;-0.4189;0.0698;-0.6806;
26.0650;5.3532;-0.7811;-7.6393;-0.4189;0.0698;-0.6806;
26.0670;5.3532;-0.7811;-7.6393;-0.4189;0.0698;-0.6806;
26.0690;5.3532;-0.7811;-7.6393;-0.2443;0.0349;-0.4712;
26.0700;0.0886;-4.7675;-4.5053;-0.2443;0.0349;-0.4712;
26.1320;0.0886;-4.7675;-4.5053;-0.2443;0.0349;-0.4712;
26.1340;0.0886;-4.7675;-4.5053;-0.2443;0.0349;-0.4712;
26.1350;0.0886;-4.7675;-4.5053;-0.1745;0.1571;-0.4189;
26.1360;-4.0659;0.1866;3.1478;-0.1745;0.1571;-0.4189;
26.1970;-4.0659;0.1866;3.1478;-0.1745;0.1571;-0.4189;
26.2000;-4.0659;0.1866;3.1478;-0.1745;0.1571;-0.4189;
26.2010;-4.0659;0.1866;3.1478;-0.1571;0.1396;-0.4014;
26.2030;-0.3739;5.7908;-0.9549;-0.1571;0.1396;-0.4014;
26.2640;-0.3739;5.7908;-0.9549;-0.1571;0.1396;-0.4014;
26.2650;-0.3739;5.7908;-0.9549;-0.1571;0.1396;-0.4014;
26.2660;-0.3739;5.7908;-0.9549;-1.0995;0.0174;-3.0368;
26.2680;-1.3136;5.1363;-3.5379;-1.0995;0.0174;-3.0368;
26.3290;-1.3136;5.1363;-3.5379;-1.0995;0.0174;-3.0368;
26.3310;-1.3136;5.1363;-3.5379;-1.0995;0.0174;-3.0368;
26.3320;-1.3136;5.1363;-3.5379;-1.5184;0.0349;-4.3457;
26.3330;-2.3491;3.2144;-3.8919;-1.5184;0.0349;-4.3457;
26.3950;-2.3491;3.2144;-3.8919;-1.5184;0.0349;-4.3457;
26.3970;-2.3491;3.2144;-3.8919;-1.5184;0.0349;-4.3457;
26.3980;-2.3491;3.2144;-3.8919;-1.3089;0.4712;-4.3283;
26.3990;-3.3437;-6.3990;9.6934;-1.3089;0.4712;-4.3283;
26.4620;-3.3437;-6.3990;9.6934;-1.3089;0.4712;-4.3283;
26.4640;-3.3437;-6.3990;9.6934;-1.3089;0.4712;-4.3283;
26.4660;-3.3437;-6.3990;9.6934;-0.1745;0.9075;-1.5533;
26.4670;-5.5491;2.9096;-1.5884;-0.1745;0.9075;-1.5533;
26.5270;-5.5491;2.9096;-1.5884;-0.1745;0.9075;-1.5533;
26.5290;-5.5491;2.9096;-1.5884;-0.1745;0.9075;-1.5533;
26.5300;-5.5491;2.9096;-1.5884;0.5585;1.0123;-0.2094;
26.5310;4.7129;-8.3133;-2.6565;0.5585;1.0123;-0.2094;
26.5930;4.7129;-8.3133;-2.6565;0.5585;1.0123;-0.2094;
26.5950;4.7129;-8.3133;-2.6565;0.5585;1.0123;-0.2094;
26.5960;4.7129;-8.3133;-2.6565;1.4137;0.6981;3.2637;
26.5970;-1.7742;5.5483;-4.0315;1.4137;0.6981;3.2637;
26.6600;-1.7742;5.5483;-4.0315;1.4137;0.6981;3.2637;
26.6610;-1.7742;5.5483;-4.0315;1.4137;0.6981;3.2637;
26.6630;-1.7742;5.5483;-4.0315;1.7627;0.4189;3.6825;
26.6640;5.1240;0.3475;-2.8878;1.7627;0.4189;3.6825;
26.7260;5.1240;0.3475;-2.8878;1.7627;0.4189;3.6825;
26.7270;5.1240;0.3475;-2.8878;1.7627;0.4189;3.6825;
26.7290;5.1240;0.3475;-2.8878;1.6580;0.1396;3.8920;
26.7300;-0.4546;1.4068;1.5457;1.6580;0.1396;3.8920;
26.7920;-0.4546;1.4068;1.5457;1.6580;0.1396;3.8920;
26.7940;-0.4546;1.4068;1.5457;1.6580;0.1396;3.8920;
26.7950;-0.4546;1.4068;1.5457;0.7330;0.1920;1.7627;
26.7970;-3.3135;2.2228;0.4675;0.7330;0.1920;1.7627;
26.8580;-3.3135;2.2228;0.4675;0.7330;0.1920;1.7627;
26.8600;-3.3135;2.2228;0.4675;0.7330;0.1920;1.7627;
26.8610;-3.3135;2.2228;0.4675;-0.3840;0.2443;-0.1920;
26.8620;-0.1017;1.3591;-2.8909;-0.3840;0.2443;-0.1920;
27.0050;-0.1017;1.3591;-2.8909;-0.3840;0.2443;-0.1920;
27.0070;-0.1017;1.3591;-2.8909;-0.5236;0.2269;-0.7505;
27.0090;-0.1017;1.3591;-2.8909;-0.5236;0.2269;-0.7505;
27.0110;-0.1017;1.3591;-2.8909;-0.5236;0.2269;-0.7505;
27.0120;3.3241;-0.8162;0.6504;-0.5236;0.2269;-0.7505;
27.0130;3.3241;-0.8162;0.6504;-0.5236;0.2269;-0.7505;
27.0150;3.3241;-0.8162;0.6504;-0.5236;0.2269;-0.7505;
27.0160;3.3241;-0.8162;0.6504;-0.5236;0.2269;-0.7505;
27.0170;3.3241;-0.8162;0.6504;-0.5236;0.2269;-0.7505;
27.0540;3.3241;-0.8162;0.6504;-0.5236;0.2269;-0.7505;
27.0570;3.3241;-0.8162;0.6504;-0.5236;0.2269;-0.7505;
27.0580;3.3241;-0.8162;0.6504;-0.3665;0.0872;-0.6108;
27.0590;4.9613;-3.2418;4.0929;-0.3665;0.0872;-0.6108;
27.1200;4.9613;-3.2418;4.0929;-0.3665;0.0872;-0.6108;
27.1230;4.9613;-3.2418;4.0929;-0.3665;0.0872;-0.6108;
27.1240;4.9613;-3.2418;4.0929;-0.1920;-0.0174;-0.4538;
27.1250;3.7858;-2.3678;-8.4947;-0.1920;-0.0174;-0.4538;
27.1860;3.7858;-2.3678;-8.4947;-0.1920;-0.0174;-0.4538;
27.1890;3.7858;-2.3678;-8.4947;-0.1920;-0.0174;-0.4538;
27.1900;3.7858;-2.3678;-8.4947;-0.0872;0.1222;-0.4538;
27.1910;-2.6394;-6.6955;-1.1576;-0.0872;0.1222;-0.4538;
27.2530;-2.6394;-6.6955;-1.1576;-0.0872;0.1222;-0.4538;
27.2630;-2.6394;-6.6955;-1.1576;-0.0872;0.1222;-0.4538;
27.2640;-2.6394;-6.6955;-1.1576;-0.0698;0.2792;-0.4712;
27.2650;-3.1739;2.2405;2.7814;-0.0698;0.2792;-0.4712;
27.3180;-3.1739;2.2405;2.7814;-0.0698;0.2792;-0.4712;
27.3210;-3.1739;2.2405;2.7814;-0.0698;0.2792;-0.4712;
27.3220;-3.1739;2.2405;2.7814;-0.1047;0.0872;-0.4363;
27.3230;-0.6562;6.4438;-2.5880;-0.1047;0.0872;-0.4363;
27.3840;-0.6562;6.4438;-2.5880;-0.1047;0.0872;-0.4363;
27.3900;-0.6562;6.4438;-2.5880;-0.1047;0.0872;-0.4363;
27.3910;-0.6562;6.4438;-2.5880;-1.3439;-0.0524;-4.4505;
27.3910;-1.6784;5.4529;-4.5485;-1.3439;-0.0524;-4.4505;
27.4510;-1.6784;5.4529;-4.5485;-1.3439;-0.0524;-4.4505;
27.4530;-1.6784;5.4529;-4.5485;-1.3439;-0.0524;-4.4505;
27.4540;-1.6784;5.4529;-4.5485;-1.2915;0.0174;-4.4679;
27.4540;-0.7586;0.2701;0.7034;-1.2915;0.0174;-4.4679;
27.5200;-0.7586;0.2701;0.7034;-1.2915;0.0174;-4.4679;
27.5200;-0.7586;0.2701;0.7034;-1.1693;0.4712;-4.5028;
27.5210;-3.4878;-8.4634;12.3544;-1.1693;0.4712;-4.5028;
27.5250;-3.4878;-8.4634;12.3544;-1.1693;0.4712;-4.5028;
27.5830;-3.4878;-8.4634;12.3544;-1.1693;0.4712;-4.5028;
27.5850;-3.4878;-8.4634;12.3544;-1.1693;0.4712;-4.5028;
27.5850;-3.4878;-8.4634;12.3544;0.2269;0.9250;-0.2443;
27.5860;-0.5983;-1.6908;-2.6051;0.2269;0.9250;-0.2443;
27.6510;-0.5983;-1.6908;-2.6051;0.2269;0.9250;-0.2443;
27.6530;-0.5983;-1.6908;-2.6051;0.2269;0.9250;-0.2443;
27.6540;-0.5983;-1.6908;-2.6051;0.4014;0.9250;-0.1920;
27.6580;2.5018;-6.5114;-3.5762;0.4014;0.9250;-0.1920;
27.7150;2.5018;-6.5114;-3.5762;0.4014;0.9250;-0.1920;
27.7170;2.5018;-6.5114;-3.5762;0.4014;0.9250;-0.1920;
27.7180;2.5018;-6.5114;-3.5762;1.1170;0.5410;3.5429;
27.7190;3.4055;0.9793;-3.8397;1.1170;0.5410;3.5429;
27.8030;3.4055;0.9793;-3.8397;1.1170;0.5410;3.5429;
27.8050;3.4055;0.9793;-3.8397;1.3788;0.2967;3.8745;
27.8060;2.8902;1.9586;3.9519;1.3788;0.2967;3.8745;
27.8230;2.8902;1.9586;3.9519;1.3788;0.2967;3.8745;
27.8480;2.8902;1.9586;3.9519;1.3788;0.2967;3.8745;
27.8490;2.8902;1.9586;3.9519;1.3788;0.2967;3.8745;
27.8500;2.8902;1.9586;3.9519;1.1693;0.1920;3.9443;
27.8510;-2.0807;1.0482;1.8089;1.1693;0.1920;3.9443;
27.9130;-2.0807;1.0482;1.8089;1.1693;0.1920;3.9443;
27.9150;-2.0807;1.0482;1.8089;1.1693;0.1920;3.9443;
27.9160;-2.0807;1.0482;1.8089;0.3490;0.2269;0.3840;
27.9170;-2.3069;2.4639;-2.2448;0.3490;0.2269;0.3840;
27.9790;-2.3069;2.4639;-2.2448;0.3490;0.2269;0.3840;
27.9810;-2.3069;2.4639;-2.2448;0.3490;0.2269;0.3840;
27.9820;-2.3069;2.4639;-2.2448;-0.3141;0.2443;-0.2618;
27.9830;-0.0688;-0.6743;-1.8410;-0.3141;0.2443;-0.2618;
28.0450;-0.0688;-0.6743;-1.8410;-0.3141;0.2443;-0.2618;
28.0470;-0.0688;-0.6743;-1.8410;-0.3141;0.2443;-0.2618;
28.0480;-0.0688;-0.6743;-1.8410;-0.5061;0.3316;-0.6981;
28.0490;3.7281;0.8159;3.4812;-0.5061;0.3316;-0.6981;
28.1110;3.7281;0.8159;3.4812;-0.5061;0.3316;-0.6981;
28.1220;3.7281;0.8159;3.4812;-0.5061;0.3316;-0.6981;
28.1230;3.7281;0.8159;3.4812;-0.4538;0.2792;-0.7156;
28.1240;4.7710;-1.5818;-0.3006;-0.4538;0.2792;-0.7156;
28.1770;4.7710;-1.5818;-0.3006;-0.4538;0.2792;-0.7156;
28.1790;4.7710;-1.5818;-0.3006;-0.4538;0.2792;-0.7156;
28.1800;4.7710;-1.5818;-0.3006;-0.3141;0.1047;-0.5759;
28.1810;3.8055;-2.1937;-1.7326;-0.3141;0.1047;-0.5759;
28.2440;3.8055;-2.1937;-1.7326;-0.3141;0.1047;-0.5759;
28.2460;3.8055;-2.1937;-1.7326;-0.3141;0.1047;-0.5759;
28.2480;3.8055;-2.1937;-1.7326;-0.2094;0.0524;-0.4538;
28.2490;2.3823;-4.0449;-6.0287;-0.2094;0.0524;-0.4538;
28.3100;2.3823;-4.0449;-6.0287;-0.2094;0.0524;-0.4538;
28.3120;2.3823;-4.0449;-6.0287;-0.2094;0.0524;-0.4538;
28.3130;2.3823;-4.0449;-6.0287;-0.2094;0.1920;-0.5061;
28.3140;-4.8744;-1.9009;1.2290;-0.2094;0.1920;-0.5061;
28.3830;-4.8744;-1.9009;1.2290;-0.2094;0.1920;-0.5061;
28.3840;-4.8744;-1.9009;1.2290;-0.2094;0.1920;-0.5061;
28.3860;-4.8744;-1.9009;1.2290;-0.2618;0.3141;-0.5410;
28.3870;-1.0406;5.7720;1.7357;-0.2618;0.3141;-0.5410;
28.4410;-1.0406;5.7720;1.7357;-0.2618;0.3141;-0.5410;
28.4430;-1.0406;5.7720;1.7357;-0.2618;0.3141;-0.5410;
28.4440;-1.0406;5.7720;1.7357;-0.5934;0.2094;-1.6755;
28.4450;-0.6212;4.9380;-2.8513;-0.5934;0.2094;-1.6755;
28.5130;-0.6212;4.9380;-2.8513;-0.5934;0.2094;-1.6755;
28.5150;-0.6212;4.9380;-2.8513;-1.3264;0.0872;-4.5552;
28.5160;-2.3427;3.5256;-2.6079;-1.3264;0.0872;-4.5552;
28.5170;-2.3427;3.5256;-2.6079;-1.3264;0.0872;-4.5552;
28.5740;-2.3427;3.5256;-2.6079;-1.3264;0.0872;-4.5552;
28.5760;-2.3427;3.5256;-2.6079;-1.3264;0.0872;-4.5552;
28.5770;-2.3427;3.5256;-2.6079;-1.1693;0.2094;-4.4679;
28.5780;0.3999;-8.0242;16.9677;-1.1693;0.2094;-4.4679;
28.6380;0.3999;-8.0242;16.9677;-1.1693;0.2094;-4.4679;
28.6410;0.3999;-8.0242;16.9677;-1.1693;0.2094;-4.4679;
28.6420;0.3999;-8.0242;16.9677;-0.6981;0.5585;-3.2462;
28.6430;-4.9372;0.1534;8.4256;-0.6981;0.5585;-3.2462;
28.7050;-4.9372;0.1534;8.4256;-0.6981;0.5585;-3.2462;
28.7070;-4.9372;0.1534;8.4256;-0.6981;0.5585;-3.2462;
28.7080;-4.9372;0.1534;8.4256;0.3316;0.6458;-0.2094;
28.7090;-0.9212;1.2442;-4.9959;0.3316;0.6458;-0.2094;
28.7730;-0.9212;1.2442;-4.9959;0.3316;0.6458;-0.2094;
28.7750;-0.9212;1.2442;-4.9959;0.3316;0.6458;-0.2094;
28.7760;-0.9212;1.2442;-4.9959;1.1519;0.5236;3.8745;
28.7780;2.6501;-5.3610;-4.2880;1.1519;0.5236;3.8745;
28.8370;2.6501;-5.3610;-4.2880;1.1519;0.5236;3.8745;
28.8400;2.6501;-5.3610;-4.2880;1.1519;0.5236;3.8745;
28.8410;2.6501;-5.3610;-4.2880;1.7104;0.4887;4.2934;
28.8420;2.9759;1.9606;-3.1952;1.7104;0.4887;4.2934;
28.9030;2.9759;1.9606;-3.1952;1.7104;0.4887;4.2934;
28.9060;2.9759;1.9606;-3.1952;1.7104;0.4887;4.2934;
28.9070;2.9759;1.9606;-3.1952;1.6929;0.3665;4.3981;
28.9090;1.4628;0.6540;0.8491;1.6929;0.3665;4.3981;
28.9690;1.4628;0.6540;0.8491;1.6929;0.3665;4.3981;
28.9710;1.4628;0.6540;0.8491;1.6929;0.3665;4.3981;
28.9720;1.4628;0.6540;0.8491;0.7156;0.2443;0.6108;
28.9730;-3.2865;1.9873;0.9801;0.7156;0.2443;0.6108;
29.0350;-3.2865;1.9873;0.9801;0.7156;0.2443;0.6108;
29.0370;-3.2865;1.9873;0.9801;0.7156;0.2443;0.6108;
29.0380;-3.2865;1.9873;0.9801;-0.1222;-0.0349;0.1047;
29.0390;-0.9698;1.9942;-3.3285;-0.1222;-0.0349;0.1047;
29.1000;-0.9698;1.9942;-3.3285;-0.1222;-0.0349;0.1047;
29.1030;-0.9698;1.9942;-3.3285;-0.1222;-0.0349;0.1047;
29.1040;-0.9698;1.9942;-3.3285;-0.6806;-0.0349;-0.3840;
29.1050;0.9930;-1.1488;-2.5758;-0.6806;-0.0349;-0.3840;
29.1670;0.9930;-1.1488;-2.5758;-0.6806;-0.0349;-0.3840;
29.1690;0.9930;-1.1488;-2.5758;-0.6806;-0.0349;-0.3840;
29.1700;0.9930;-1.1488;-2.5758;-0.8028;0.0872;-0.6632;
29.1710;4.9268;0.3013;1.5902;-0.8028;0.0872;-0.6632;
29.2320;4.9268;0.3013;1.5902;-0.8028;0.0872;-0.6632;
29.2350;4.9268;0.3013;1.5902;-0.8028;0.0872;-0.6632;
29.2360;4.9268;0.3013;1.5902;-0.6458;0.0174;-0.6108;
29.2370;4.7224;-5.9887;3.1588;-0.6458;0.0174;-0.6108;
29.2980;4.7224;-5.9887;3.1588;-0.6458;0.0174;-0.6108;
29.3010;4.7224;-5.9887;3.1588;-0.6458;0.0174;-0.6108;
29.3020;4.7224;-5.9887;3.1588;-0.5236;-0.0349;-0.4887;
29.3030;1.7027;-1.9130;-3.1352;-0.5236;-0.0349;-0.4887;
29.3640;1.7027;-1.9130;-3.1352;-0.5236;-0.0349;-0.4887;
29.3710;1.7027;-1.9130;-3.1352;-0.5236;-0.0349;-0.4887;
29.3720;1.7027;-1.9130;-3.1352;-0.4189;0.1920;-0.4712;
29.3730;-1.9416;-4.5396;-3.2114;-0.4189;0.1920;-0.4712;
29.4360;-1.9416;-4.5396;-3.2114;-0.4189;0.1920;-0.4712;
29.4360;-1.9416;-4.5396;-3.2114;-0.3490;0.4014;-0.4712;
29.4370;-4.4343;-1.2834;2.4274;-0.3490;0.4014;-0.4712;
29.4380;-4.4343;-1.2834;2.4274;-0.3490;0.4014;-0.4712;
29.4970;-4.4343;-1.2834;2.4274;-0.3490;0.4014;-0.4712;
29.4990;-4.4343;-1.2834;2.4274;-0.3490;0.4014;-0.4712;
29.5000;-4.4343;-1.2834;2.4274;-0.1745;0.3665;-0.3141;
29.5010;-0.6637;6.2603;-0.9443;-0.1745;0.3665;-0.3141;
29.5750;-0.6637;6.2603;-0.9443;-0.1745;0.3665;-0.3141;
29.5760;-0.6637;6.2603;-0.9443;0.0174;-0.1396;-0.0174;
29.5770;-1.3750;4.5757;-3.7276;0.0174;-0.1396;-0.0174;
29.5780;-1.3750;4.5757;-3.7276;0.0174;-0.1396;-0.0174;
29.6330;-1.3750;4.5757;-3.7276;0.0174;-0.1396;-0.0174;
29.6390;-1.3750;4.5757;-3.7276;-0.2094;-0.5934;-1.0646;
29.6400;-1.6770;2.3339;-1.2134;-0.2094;-0.5934;-1.0646;
29.6500;-1.6770;2.3339;-1.2134;-0.2094;-0.5934;-1.0646;
29.7110;-1.6770;2.3339;-1.2134;-0.2094;-0.5934;-1.0646;
29.7130;-1.6770;2.3339;-1.2134;-0.9250;-0.5236;-3.7174;
29.7140;-0.4375;-8.5705;15.9061;-0.9250;-0.5236;-3.7174;
29.7150;-0.4375;-8.5705;15.9061;-0.9250;-0.5236;-3.7174;
29.7620;-0.4375;-8.5705;15.9061;-0.9250;-0.5236;-3.7174;
29.7630;-0.4375;-8.5705;15.9061;-0.9250;-0.5236;-3.7174;
29.7640;-0.4375;-8.5705;15.9061;-0.9250;0.0349;-3.8396;
29.7650;-7.1903;1.4776;1.4897;-0.9250;0.0349;-3.8396;
29.8380;-7.1903;1.4776;1.4897;-0.9250;0.0349;-3.8396;
29.8390;-7.1903;1.4776;1.4897;-0.5934;0.4887;-2.6528;
29.8400;0.9001;-4.3969;-4.1313;-0.5934;0.4887;-2.6528;
29.8410;0.9001;-4.3969;-4.1313;-0.5934;0.4887;-2.6528;
29.8940;0.9001;-4.3969;-4.1313;-0.5934;0.4887;-2.6528;
29.8950;0.9001;-4.3969;-4.1313;-0.5934;0.4887;-2.6528;
29.8960;0.9001;-4.3969;-4.1313;1.3613;0.5236;4.0316;
29.8980;-0.2777;4.3513;-4.6910;1.3613;0.5236;4.0316;
29.9690;-0.2777;4.3513;-4.6910;1.3613;0.5236;4.0316;
29.9700;-0.2777;4.3513;-4.6910;1.6755;0.3141;4.4330;
29.9860;6.5017;-0.0419;-1.8897;1.6755;0.3141;4.4330;
29.9880;6.5017;-0.0419;-1.8897;1.6755;0.3141;4.4330;
30.0250;6.5017;-0.0419;-1.8897;1.6755;0.3141;4.4330;
30.0270;6.5017;-0.0419;-1.8897;1.6755;0.3141;4.4330;
30.0280;6.5017;-0.0419;-1.8897;1.3613;-0.0524;3.4207;
30.0290;-0.6809;-0.1794;2.1882;1.3613;-0.0524;3.4207;
30.0910;-0.6809;-0.1794;2.1882;1.3613;-0.0524;3.4207;
30.0930;-0.6809;-0.1794;2.1882;1.3613;-0.0524;3.4207;
30.0940;-0.6809;-0.1794;2.1882;0.3316;-0.1047;0.5759;
30.0950;-3.7315;2.0710;-0.4243;0.3316;-0.1047;0.5759;
30.1570;-3.7315;2.0710;-0.4243;0.3316;-0.1047;0.5759;
30.1590;-3.7315;2.0710;-0.4243;0.3316;-0.1047;0.5759;
30.1600;-3.7315;2.0710;-0.4243;-0.3316;-0.0524;-0.0349;
30.1610;0.0476;1.8936;-3.4984;-0.3316;-0.0524;-0.0349;
30.2240;0.0476;1.8936;-3.4984;-0.3316;-0.0524;-0.0349;
30.2250;0.0476;1.8936;-3.4984;-0.3316;-0.0524;-0.0349;
30.2260;0.0476;1.8936;-3.4984;-0.6283;0.2269;-0.5759;
30.2270;2.0023;-1.0982;1.6761;-0.6283;0.2269;-0.5759;
30.2890;2.0023;-1.0982;1.6761;-0.6283;0.2269;-0.5759;
30.2910;2.0023;-1.0982;1.6761;-0.6283;0.2269;-0.5759;
30.2920;2.0023;-1.0982;1.6761;-0.5759;0.3141;-0.6632;
30.2930;3.0460;-0.0506;2.3146;-0.5759;0.3141;-0.6632;
30.3550;3.0460;-0.0506;2.3146;-0.5759;0.3141;-0.6632;
30.3570;3.0460;-0.0506;2.3146;-0.5759;0.3141;-0.6632;
30.3580;3.0460;-0.0506;2.3146;-0.3665;0.2269;-0.5585;
30.3590;5.7049;-4.6973;3.9704;-0.3665;0.2269;-0.5585;
30.4210;5.7049;-4.6973;3.9704;-0.3665;0.2269;-0.5585;
30.4230;5.7049;-4.6973;3.9704;-0.3665;0.2269;-0.5585;
30.4240;5.7049;-4.6973;3.9704;-0.2094;0.1396;-0.4014;
30.4250;1.9782;-3.6831;-6.8783;-0.2094;0.1396;-0.4014;
30.4870;1.9782;-3.6831;-6.8783;-0.2094;0.1396;-0.4014;
30.4890;1.9782;-3.6831;-6.8783;-0.2094;0.1396;-0.4014;
30.4900;1.9782;-3.6831;-6.8783;-0.2094;0.2792;-0.4189;
30.4910;-2.6291;-6.1797;-1.6690;-0.2094;0.2792;-0.4189;
30.5540;-2.6291;-6.1797;-1.6690;-0.2094;0.2792;-0.4189;
30.5560;-2.6291;-6.1797;-1.6690;-0.2094;0.2792;-0.4189;
30.5580;-2.6291;-6.1797;-1.6690;-0.2269;0.4538;-0.4538;
30.5600;-1.8009;3.8659;2.6673;-0.2269;0.4538;-0.4538;
30.6190;-1.8009;3.8659;2.6673;-0.2269;0.4538;-0.4538;
30.6210;-1.8009;3.8659;2.6673;-0.2269;0.4538;-0.4538;
30.6220;-1.8009;3.8659;2.6673;-0.2094;0.2443;-0.3840;
30.6230;-0.5521;6.0050;-2.6268;-0.2094;0.2443;-0.3840;
30.6860;-0.5521;6.0050;-2.6268;-0.2094;0.2443;-0.3840;
30.6880;-0.5521;6.0050;-2.6268;-0.2094;0.2443;-0.3840;
30.6890;-0.5521;6.0050;-2.6268;-0.9599;-0.1047;-3.0542;
30.6910;-1.4707;4.2309;-4.0203;-0.9599;-0.1047;-3.0542;
30.7510;-1.4707;4.2309;-4.0203;-0.9599;-0.1047;-3.0542;
30.7540;-1.4707;4.2309;-4.0203;-0.9599;-0.1047;-3.0542;
30.7550;-1.4707;4.2309;-4.0203;-1.2042;-0.1222;-4.4155;
30.7560;1.1804;-2.9423;10.5529;-1.2042;-0.1222;-4.4155;
30.8190;1.1804;-2.9423;10.5529;-1.2042;-0.1222;-4.4155;
30.8200;1.1804;-2.9423;10.5529;-1.2042;-0.1222;-4.4155;
30.8220;1.1804;-2.9423;10.5529;-1.0646;0.1920;-4.4505;
30.8230;-3.4663;-8.3316;9.9154;-1.0646;0.1920;-4.4505;
30.8840;-3.4663;-8.3316;9.9154;-1.0646;0.1920;-4.4505;
30.8850;-3.4663;-8.3316;9.9154;-1.0646;0.1920;-4.4505;
30.8870;-3.4663;-8.3316;9.9154;-0.5585;0.6458;-3.1240;
30.8880;-5.7066;1.9759;-4.0877;-0.5585;0.6458;-3.1240;
30.9500;-5.7066;1.9759;-4.0877;-0.5585;0.6458;-3.1240;
30.9520;-5.7066;1.9759;-4.0877;-0.5585;0.6458;-3.1240;
30.9530;-5.7066;1.9759;-4.0877;0.9075;0.6108;2.3387;
30.9550;2.4956;-5.4185;-5.7359;0.9075;0.6108;2.3387;
31.0160;2.4956;-5.4185;-5.7359;0.9075;0.6108;2.3387;
31.0170;2.4956;-5.4185;-5.7359;0.9075;0.6108;2.3387;
31.0180;2.4956;-5.4185;-5.7359;1.4660;0.4712;3.8920;
31.0190;2.1137;3.5311;-5.8580;1.4660;0.4712;3.8920;
31.0800;2.1137;3.5311;-5.8580;1.4660;0.4712;3.8920;
31.0830;2.1137;3.5311;-5.8580;1.4660;0.4712;3.8920;
31.0910;2.1137;3.5311;-5.8580;1.6405;0.1047;4.2585;
31.0920;4.0101;1.8964;8.4010;1.6405;0.1047;4.2585;
31.1470;4.0101;1.8964;8.4010;1.6405;0.1047;4.2585;
31.1490;4.0101;1.8964;8.4010;1.6405;0.1047;4.2585;
31.1500;4.0101;1.8964;8.4010;0.8377;-0.1047;1.9373;
31.1510;-1.9748;0.7989;1.9631;0.8377;-0.1047;1.9373;
31.2120;-1.9748;0.7989;1.9631;0.8377;-0.1047;1.9373;
31.2150;-1.9748;0.7989;1.9631;0.8377;-0.1047;1.9373;
31.2160;-1.9748;0.7989;1.9631;-0.0524;-0.0524;0.2443;
31.2170;-0.9908;1.7255;-1.3700;-0.0524;-0.0524;0.2443;
31.2780;-0.9908;1.7255;-1.3700;-0.0524;-0.0524;0.2443;
31.2810;-0.9908;1.7255;-1.3700;-0.0524;-0.0524;0.2443;
31.2820;-0.9908;1.7255;-1.3700;-0.6283;0.2792;-0.4014;
31.2830;0.1866;1.2437;-2.7223;-0.6283;0.2792;-0.4014;
31.3440;0.1866;1.2437;-2.7223;-0.6283;0.2792;-0.4014;
31.3470;0.1866;1.2437;-2.7223;-0.6283;0.2792;-0.4014;
31.3480;0.1866;1.2437;-2.7223;-0.7679;0.6458;-0.8552;
31.3490;1.0987;-1.0199;3.8064;-0.7679;0.6458;-0.8552;
31.4110;1.0987;-1.0199;3.8064;-0.7679;0.6458;-0.8552;
31.4200;1.0987;-1.0199;3.8064;-0.7679;0.6458;-0.8552;
31.4210;1.0987;-1.0199;3.8064;-0.5934;0.6108;-0.8203;
31.4210;2.6041;-1.2577;3.5522;-0.5934;0.6108;-0.8203;
31.4760;2.6041;-1.2577;3.5522;-0.5934;0.6108;-0.8203;
31.4830;2.6041;-1.2577;3.5522;-0.5934;0.6108;-0.8203;
31.4840;2.6041;-1.2577;3.5522;-0.4189;0.3840;-0.5759;
31.4840;5.7647;-3.1418;-1.4240;-0.4189;0.3840;-0.5759;
31.5420;5.7647;-3.1418;-1.4240;-0.4189;0.3840;-0.5759;
31.5460;5.7647;-3.1418;-1.4240;-0.4189;0.3840;-0.5759;
31.5470;5.7647;-3.1418;-1.4240;-0.2618;0.3316;-0.4014;
31.5480;2.1841;-3.0168;-4.7517;-0.2618;0.3316;-0.4014;
31.6140;2.1841;-3.0168;-4.7517;-0.2618;0.3316;-0.4014;
31.6150;2.1841;-3.0168;-4.7517;-0.1571;0.5236;-0.3665;
31.6150;-4.0350;-5.1227;-2.2171;-0.1571;0.5236;-0.3665;
31.6160;-4.0350;-5.1227;-2.2171;-0.1571;0.5236;-0.3665;
31.6770;-4.0350;-5.1227;-2.2171;-0.1571;0.5236;-0.3665;
31.6780;-4.0350;-5.1227;-2.2171;-0.1571;0.5236;-0.3665;
31.6780;-4.0350;-5.1227;-2.2171;-0.1222;0.5934;-0.3665;
31.6790;-1.2755;3.6624;1.1460;-0.1222;0.5934;-0.3665;
31.7510;-1.2755;3.6624;1.1460;-0.1222;0.5934;-0.3665;
31.7520;-1.2755;3.6624;1.1460;-0.0872;0.1222;-0.1920;
31.7530;-1.4883;5.4478;-2.8768;-0.0872;0.1222;-0.1920;
31.7550;-1.4883;5.4478;-2.8768;-0.0872;0.1222;-0.1920;
31.8070;-1.4883;5.4478;-2.8768;-0.0872;0.1222;-0.1920;
31.8090;-1.4883;5.4478;-2.8768;-0.0872;0.1222;-0.1920;
31.8100;-1.4883;5.4478;-2.8768;0.0000;-0.5410;0.0698;
31.8110;-2.2206;4.0290;-3.5437;0.0000;-0.5410;0.0698;
31.8790;-2.2206;4.0290;-3.5437;0.0000;-0.5410;0.0698;
31.8800;-2.2206;4.0290;-3.5437;0.0000;-0.5410;0.0698;
31.8810;-2.2206;4.0290;-3.5437;-0.1571;-0.8901;-1.0995;
31.8820;0.3543;-2.6457;9.1931;-0.1571;-0.8901;-1.0995;
31.9400;0.3543;-2.6457;9.1931;-0.1571;-0.8901;-1.0995;
31.9430;0.3543;-2.6457;9.1931;-0.1571;-0.8901;-1.0995;
31.9500;0.3543;-2.6457;9.1931;-0.6806;-0.6108;-3.7872;
31.9520;-4.8057;-5.0485;10.5303;-0.6806;-0.6108;-3.7872;
32.0250;-4.8057;-5.0485;10.5303;-0.6806;-0.6108;-3.7872;
32.0340;-4.8057;-5.0485;10.5303;-0.6632;0.0524;-3.9094;
32.0350;-4.7271;1.0031;-2.5936;-0.6632;0.0524;-3.9094;
32.0360;-4.7271;1.0031;-2.5936;-0.6632;0.0524;-3.9094;
32.0710;-4.7271;1.0031;-2.5936;-0.6632;0.0524;-3.9094;
32.0730;-4.7271;1.0031;-2.5936;-0.6632;0.0524;-3.9094;
32.0740;-4.7271;1.0031;-2.5936;-0.2269;0.4712;-2.0943;
32.0750;-0.8316;-0.3928;-7.0685;-0.2269;0.4712;-2.0943;
32.1410;-0.8316;-0.3928;-7.0685;-0.2269;0.4712;-2.0943;
32.1440;-0.8316;-0.3928;-7.0685;-0.2269;0.4712;-2.0943;
32.1450;-0.8316;-0.3928;-7.0685;1.2042;0.5236;3.1764;
32.1460;5.8992;0.7264;-3.3526;1.2042;0.5236;3.1764;
32.2040;5.8992;0.7264;-3.3526;1.2042;0.5236;3.1764;
32.2050;5.8992;0.7264;-3.3526;1.2042;0.5236;3.1764;
32.2060;5.8992;0.7264;-3.3526;1.4311;0.1571;3.5604;
32.2070;2.1405;1.7632;1.0089;1.4311;0.1571;3.5604;
32.2750;2.1405;1.7632;1.0089;1.4311;0.1571;3.5604;
32.2760;2.1405;1.7632;1.0089;1.4311;0.1571;3.5604;
32.2770;2.1405;1.7632;1.0089;1.1344;-0.1222;2.5306;
32.2780;-2.3095;1.7754;1.5220;1.1344;-0.1222;2.5306;
32.3350;-2.3095;1.7754;1.5220;1.1344;-0.1222;2.5306;
32.3370;-2.3095;1.7754;1.5220;1.1344;-0.1222;2.5306;
32.3380;-2.3095;1.7754;1.5220;0.4014;-0.1920;0.5061;
32.3390;-1.1776;1.8000;-2.1889;0.4014;-0.1920;0.5061;
32.4010;-1.1776;1.8000;-2.1889;0.4014;-0.1920;0.5061;
32.4030;-1.1776;1.8000;-2.1889;0.4014;-0.1920;0.5061;
32.4040;-1.1776;1.8000;-2.1889;-0.2792;-0.0698;-0.1396;
32.4050;-0.1541;-0.1975;-1.8135;-0.2792;-0.0698;-0.1396;
32.4670;-0.1541;-0.1975;-1.8135;-0.2792;-0.0698;-0.1396;
32.4690;-0.1541;-0.1975;-1.8135;-0.2792;-0.0698;-0.1396;
32.4700;-0.1541;-0.1975;-1.8135;-0.6283;0.1745;-0.6981;
32.4710;3.0197;-0.3721;2.4595;-0.6283;0.1745;-0.6981;
32.5340;3.0197;-0.3721;2.4595;-0.6283;0.1745;-0.6981;
32.5360;3.0197;-0.3721;2.4595;-0.6283;0.1745;-0.6981;
32.5370;3.0197;-0.3721;2.4595;-0.6283;0.2269;-0.8203;
32.5390;3.3915;-1.2632;0.3278;-0.6283;0.2269;-0.8203;
32.6000;3.3915;-1.2632;0.3278;-0.6283;0.2269;-0.8203;
32.6020;3.3915;-1.2632;0.3278;-0.6283;0.2269;-0.8203;
32.6040;3.3915;-1.2632;0.3278;-0.4887;0.0872;-0.6981;
32.6050;3.2986;-2.8723;0.4484;-0.4887;0.0872;-0.6981;
32.6650;3.2986;-2.8723;0.4484;-0.4887;0.0872;-0.6981;
32.6670;3.2986;-2.8723;0.4484;-0.4887;0.0872;-0.6981;
32.6680;3.2986;-2.8723;0.4484;-0.3665;0.0349;-0.5236;
32.6690;2.4219;-2.7267;-6.5003;-0.3665;0.0349;-0.5236;
32.7320;2.4219;-2.7267;-6.5003;-0.3665;0.0349;-0.5236;
32.7330;2.4219;-2.7267;-6.5003;-0.3665;0.0349;-0.5236;
32.7340;2.4219;-2.7267;-6.5003;-0.2792;0.2618;-0.4887;
32.7350;-3.7711;-1.4051;2.8474;-0.2792;0.2618;-0.4887;
32.7960;-3.7711;-1.4051;2.8474;-0.2792;0.2618;-0.4887;
32.7990;-3.7711;-1.4051;2.8474;-0.2792;0.2618;-0.4887;
32.8000;-3.7711;-1.4051;2.8474;-0.2967;0.3316;-0.4712;
32.8010;-0.1499;5.0569;1.0991;-0.2967;0.3316;-0.4712;
32.8620;-0.1499;5.0569;1.0991;-0.2967;0.3316;-0.4712;
32.8650;-0.1499;5.0569;1.0991;-0.2967;0.3316;-0.4712;
32.8660;-0.1499;5.0569;1.0991;-0.7505;0.1571;-1.7453;
32.8670;-1.0737;5.2120;-3.1788;-0.7505;0.1571;-1.7453;
32.9330;-1.0737;5.2120;-3.1788;-0.7505;0.1571;-1.7453;
32.9350;-1.0737;5.2120;-3.1788;-1.5184;0.0698;-4.4330;
32.9370;-1.7221;4.0433;-3.2530;-1.5184;0.0698;-4.4330;
32.9390;-1.7221;4.0433;-3.2530;-1.5184;0.0698;-4.4330;
32.9960;-1.7221;4.0433;-3.2530;-1.5184;0.0698;-4.4330;
32.9990;-1.7221;4.0433;-3.2530;-1.5184;0.0698;-4.4330;
33.0000;-1.7221;4.0433;-3.2530;-1.3613;0.1745;-4.4155;
33.0020;0.4117;-5.3765;13.0249;-1.3613;0.1745;-4.4155;
33.0610;0.4117;-5.3765;13.0249;-1.3613;0.1745;-4.4155;
33.0630;0.4117;-5.3765;13.0249;-1.3613;0.1745;-4.4155;
33.0640;0.4117;-5.3765;13.0249;-0.6632;0.6981;-3.0019;
33.0660;-6.4428;1.2547;4.2472;-0.6632;0.6981;-3.0019;
33.1270;-6.4428;1.2547;4.2472;-0.6632;0.6981;-3.0019;
33.1290;-6.4428;1.2547;4.2472;-0.6632;0.6981;-3.0019;
33.1300;-6.4428;1.2547;4.2472;0.7679;0.7854;1.1344;
33.1310;-0.3569;-2.2906;-3.7843;0.7679;0.7854;1.1344;
33.1930;-0.3569;-2.2906;-3.7843;0.7679;0.7854;1.1344;
33.1950;-0.3569;-2.2906;-3.7843;0.7679;0.7854;1.1344;
33.1960;-0.3569;-2.2906;-3.7843;1.4486;0.6632;3.9094;
33.1970;0.9351;-0.2835;-3.2952;1.4486;0.6632;3.9094;
33.2580;0.9351;-0.2835;-3.2952;1.4486;0.6632;3.9094;
33.2610;0.9351;-0.2835;-3.2952;1.4486;0.6632;3.9094;
33.2620;0.9351;-0.2835;-3.2952;1.8674;0.4538;4.4330;
33.2630;4.3769;0.7207;-2.9836;1.8674;0.4538;4.4330;
33.3240;4.3769;0.7207;-2.9836;1.8674;0.4538;4.4330;
33.3270;4.3769;0.7207;-2.9836;1.8674;0.4538;4.4330;
33.3280;4.3769;0.7207;-2.9836;1.5184;0.2618;3.3858;
33.3290;1.0971;1.6603;2.1303;1.5184;0.2618;3.3858;
33.3900;1.0971;1.6603;2.1303;1.5184;0.2618;3.3858;
33.3930;1.0971;1.6603;2.1303;1.5184;0.2618;3.3858;
33.3940;1.0971;1.6603;2.1303;0.5410;0.1047;0.6806;
33.3950;-2.1985;2.4007;-0.2819;0.5410;0.1047;0.6806;
33.4560;-2.1985;2.4007;-0.2819;0.5410;0.1047;0.6806;
33.4590;-2.1985;2.4007;-0.2819;0.5410;0.1047;0.6806;
33.4600;-2.1985;2.4007;-0.2819;-0.4712;-0.0174;-0.1047;
33.4610;-0.0527;1.9091;-1.8025;-0.4712;-0.0174;-0.1047;
33.5240;-0.0527;1.9091;-1.8025;-0.4712;-0.0174;-0.1047;
33.5250;-0.0527;1.9091;-1.8025;-0.4712;-0.0174;-0.1047;
33.5270;-0.0527;1.9091;-1.8025;-0.8377;0.0524;-0.6458;
33.5280;0.2464;-1.8817;-1.6280;-0.8377;0.0524;-0.6458;
33.5880;0.2464;-1.8817;-1.6280;-0.8377;0.0524;-0.6458;
33.5940;0.2464;-1.8817;-1.6280;-0.8377;0.0524;-0.6458;
33.5940;0.2464;-1.8817;-1.6280;-0.8028;0.0872;-0.8203;
33.5950;2.9894;0.2172;3.3457;-0.8028;0.0872;-0.8203;
33.6610;2.9894;0.2172;3.3457;-0.8028;0.0872;-0.8203;
33.6630;2.9894;0.2172;3.3457;-0.8028;0.0872;-0.8203;
33.6640;2.9894;0.2172;3.3457;-0.6108;0.0174;-0.7679;
33.6640;3.0540;-0.9676;0.7825;-0.6108;0.0174;-0.7679;
33.7260;3.0540;-0.9676;0.7825;-0.6108;0.0174;-0.7679;
33.7270;3.0540;-0.9676;0.7825;-0.4014;-0.0524;-0.5585;
33.7290;4.8082;-1.6232;-6.9600;-0.4014;-0.0524;-0.5585;
33.7300;4.8082;-1.6232;-6.9600;-0.4014;-0.0524;-0.5585;
33.7940;4.8082;-1.6232;-6.9600;-0.4014;-0.0524;-0.5585;
33.7940;4.8082;-1.6232;-6.9600;-0.2443;0.0000;-0.4189;
33.7950;-0.7633;-5.7811;-4.5655;-0.2443;0.0000;-0.4189;
33.8030;-0.7633;-5.7811;-4.5655;-0.2443;0.0000;-0.4189;
33.8540;-0.7633;-5.7811;-4.5655;-0.2443;0.0000;-0.4189;
33.8550;-0.7633;-5.7811;-4.5655;-0.2443;0.0000;-0.4189;
33.8570;-0.7633;-5.7811;-4.5655;-0.1396;0.1920;-0.3840;
33.8580;-4.0905;-2.5243;2.2796;-0.1396;0.1920;-0.3840;
33.9250;-4.0905;-2.5243;2.2796;-0.1396;0.1920;-0.3840;
33.9270;-4.0905;-2.5243;2.2796;-0.1396;0.2443;-0.3840;
33.9290;0.3897;5.6492;1.1945;-0.1396;0.2443;-0.3840;
33.9550;0.3897;5.6492;1.1945;-0.1396;0.2443;-0.3840;
33.9850;0.3897;5.6492;1.1945;-0.1396;0.2443;-0.3840;
33.9870;0.3897;5.6492;1.1945;-0.1396;0.2443;-0.3840;
33.9880;0.3897;5.6492;1.1945;-0.7330;0.1571;-2.5132;
33.9890;-1.0777;4.5440;-3.3483;-0.7330;0.1571;-2.5132;
34.0630;-1.0777;4.5440;-3.3483;-0.7330;0.1571;-2.5132;
34.0640;-1.0777;4.5440;-3.3483;-1.0995;0.1571;-4.1014;
34.0650;-2.2227;2.2231;-2.9329;-1.0995;0.1571;-4.1014;
34.0660;-2.2227;2.2231;-2.9329;-1.0995;0.1571;-4.1014;
34.1180;-2.2227;2.2231;-2.9329;-1.0995;0.1571;-4.1014;
34.1190;-2.2227;2.2231;-2.9329;-1.0995;0.1571;-4.1014;
34.1200;-2.2227;2.2231;-2.9329;-0.9599;0.2792;-4.1189;
34.1220;-2.7587;-2.1854;11.7054;-0.9599;0.2792;-4.1189;
34.1910;-2.7587;-2.1854;11.7054;-0.9599;0.2792;-4.1189;
34.1920;-2.7587;-2.1854;11.7054;-0.9599;0.2792;-4.1189;
34.1930;-2.7587;-2.1854;11.7054;-0.4189;0.6108;-2.6703;
34.1940;-3.5711;-0.4291;4.4274;-0.4189;0.6108;-2.6703;
34.2490;-3.5711;-0.4291;4.4274;-0.4189;0.6108;-2.6703;
34.2510;-3.5711;-0.4291;4.4274;-0.4189;0.6108;-2.6703;
34.2520;-3.5711;-0.4291;4.4274;0.8203;0.5585;2.0071;
34.2530;3.0744;-7.0522;-2.4551;0.8203;0.5585;2.0071;
34.3190;3.0744;-7.0522;-2.4551;0.8203;0.5585;2.0071;
34.3200;3.0744;-7.0522;-2.4551;0.8203;0.5585;2.0071;
34.3230;3.0744;-7.0522;-2.4551;1.3089;0.5061;3.5604;
34.3240;-3.0913;5.5565;-1.4601;1.3089;0.5061;3.5604;
34.3820;-3.0913;5.5565;-1.4601;1.3089;0.5061;3.5604;
34.3830;-3.0913;5.5565;-1.4601;1.3089;0.5061;3.5604;
34.3840;-3.0913;5.5565;-1.4601;1.6057;0.4014;3.8745;
34.3850;4.0149;2.1149;-1.6367;1.6057;0.4014;3.8745;
34.4470;4.0149;2.1149;-1.6367;1.6057;0.4014;3.8745;
34.4490;4.0149;2.1149;-1.6367;1.6057;0.4014;3.8745;
34.4500;4.0149;2.1149;-1.6367;1.3788;0.2967;3.0368;
34.4510;-0.4267;1.0874;-0.6602;1.3788;0.2967;3.0368;
34.5130;-0.4267;1.0874;-0.6602;1.3788;0.2967;3.0368;
34.5150;-0.4267;1.0874;-0.6602;1.3788;0.2967;3.0368;
34.5160;-0.4267;1.0874;-0.6602;0.6108;0.2094;0.4887;
34.5170;-1.9740;1.1448;0.2771;0.6108;0.2094;0.4887;
34.5790;-1.9740;1.1448;0.2771;0.6108;0.2094;0.4887;
34.5810;-1.9740;1.1448;0.2771;0.6108;0.2094;0.4887;
34.5830;-1.9740;1.1448;0.2771;-0.2094;0.0872;-0.1222;
34.5840;0.6745;0.8873;-3.3529;-0.2094;0.0872;-0.1222;
34.6440;0.6745;0.8873;-3.3529;-0.2094;0.0872;-0.1222;
34.6470;0.6745;0.8873;-3.3529;-0.2094;0.0872;-0.1222;
34.6480;0.6745;0.8873;-3.3529;-0.5585;0.1047;-0.5410;
34.6490;1.6699;0.4796;1.4732;-0.5585;0.1047;-0.5410;
34.7110;1.6699;0.4796;1.4732;-0.5585;0.1047;-0.5410;
34.7130;1.6699;0.4796;1.4732;-0.5585;0.1047;-0.5410;
34.7140;1.6699;0.4796;1.4732;-0.6108;0.0349;-0.6632;
34.7150;4.0874;0.3876;1.0405;-0.6108;0.0349;-0.6632;
34.7770;4.0874;0.3876;1.0405;-0.6108;0.0349;-0.6632;
34.7790;4.0874;0.3876;1.0405;-0.6108;0.0349;-0.6632;
34.7800;4.0874;0.3876;1.0405;-0.5410;-0.0872;-0.5934;
34.7810;1.3620;-2.3180;5.7044;-0.5410;-0.0872;-0.5934;
34.8430;1.3620;-2.3180;5.7044;-0.5410;-0.0872;-0.5934;
34.8480;1.3620;-2.3180;5.7044;-0.5410;-0.0872;-0.5934;
34.8490;1.3620;-2.3180;5.7044;-0.4712;-0.1222;-0.5410;
34.8500;7.5035;-3.1234;-8.8041;-0.4712;-0.1222;-0.5410;
34.9090;7.5035;-3.1234;-8.8041;-0.4712;-0.1222;-0.5410;
34.9110;7.5035;-3.1234;-8.8041;-0.4712;-0.1222;-0.5410;
34.9120;7.5035;-3.1234;-8.8041;-0.3141;0.0524;-0.4887;
34.9130;-2.3650;-5.4586;-1.4933;-0.3141;0.0524;-0.4887;
34.9760;-2.3650;-5.4586;-1.4933;-0.3141;0.0524;-0.4887;
34.9770;-2.3650;-5.4586;-1.4933;-0.3141;0.0524;-0.4887;
34.9780;-2.3650;-5.4586;-1.4933;-0.2967;0.2618;-0.5410;
34.9790;-5.6929;-1.6638;-0.9973;-0.2967;0.2618;-0.5410;
35.0410;-5.6929;-1.6638;-0.9973;-0.2967;0.2618;-0.5410;
35.0430;-5.6929;-1.6638;-0.9973;-0.2967;0.2618;-0.5410;
35.0440;-5.6929;-1.6638;-0.9973;-0.2792;0.3316;-0.5061;
35.0450;-0.6115;5.9141;-1.1352;-0.2792;0.3316;-0.5061;
35.1070;-0.6115;5.9141;-1.1352;-0.2792;0.3316;-0.5061;
35.1090;-0.6115;5.9141;-1.1352;-0.2792;0.3316;-0.5061;
35.1100;-0.6115;5.9141;-1.1352;-1.1868;0.0872;-3.2637;
35.1110;-1.6158;6.0294;-3.9536;-1.1868;0.0872;-3.2637;
35.2380;-1.6158;6.0294;-3.9536;-1.1868;0.0872;-3.2637;
35.2390;-1.6158;6.0294;-3.9536;-1.3788;0.2967;-4.6424;
35.2400;-1.6158;6.0294;-3.9536;-1.3788;0.2967;-4.6424;
35.2410;-1.5332;-7.5542;12.4832;-1.3788;0.2967;-4.6424;
35.2420;-1.5332;-7.5542;12.4832;-1.3788;0.2967;-4.6424;
35.2420;-1.5332;-7.5542;12.4832;-1.3788;0.2967;-4.6424;
35.2430;-1.5332;-7.5542;12.4832;-1.3788;0.2967;-4.6424;
35.2440;-1.5332;-7.5542;12.4832;-1.3788;0.2967;-4.6424;
35.3040;-1.5332;-7.5542;12.4832;-1.3788;0.2967;-4.6424;
35.3070;-1.5332;-7.5542;12.4832;-1.3788;0.2967;-4.6424;
35.3080;-1.5332;-7.5542;12.4832;-0.2618;0.9075;-1.6929;
35.3090;-4.2175;1.8416;4.4239;-0.2618;0.9075;-1.6929;
35.3710;-4.2175;1.8416;4.4239;-0.2618;0.9075;-1.6929;
35.3730;-4.2175;1.8416;4.4239;-0.2618;0.9075;-1.6929;
35.3740;-4.2175;1.8416;4.4239;0.4363;0.8901;-0.2269;
35.3750;1.7883;-5.0323;-3.8903;0.4363;0.8901;-0.2269;
35.4360;1.7883;-5.0323;-3.8903;0.4363;0.8901;-0.2269;
35.4390;1.7883;-5.0323;-3.8903;0.4363;0.8901;-0.2269;
35.4400;1.7883;-5.0323;-3.8903;1.3613;0.5759;3.7523;
35.4410;-3.3656;2.5434;-3.5459;1.3613;0.5759;3.7523;
35.5030;-3.3656;2.5434;-3.5459;1.3613;0.5759;3.7523;
35.5050;-3.3656;2.5434;-3.5459;1.3613;0.5759;3.7523;
35.5070;-3.3656;2.5434;-3.5459;1.9198;0.3141;4.2061;
35.5080;6.3469;0.7956;-0.5001;1.9198;0.3141;4.2061;
35.5680;6.3469;0.7956;-0.5001;1.9198;0.3141;4.2061;
35.5710;6.3469;0.7956;-0.5001;1.9198;0.3141;4.2061;
35.5720;6.3469;0.7956;-0.5001;1.7976;0.1571;4.3108;
35.5730;0.6184;0.6859;1.1872;1.7976;0.1571;4.3108;
35.6350;0.6184;0.6859;1.1872;1.7976;0.1571;4.3108;
35.6450;0.6184;0.6859;1.1872;1.7976;0.1571;4.3108;
35.6470;0.6184;0.6859;1.1872;0.6283;0.1222;0.5934;
35.6480;-3.5443;1.6238;0.0457;0.6283;0.1222;0.5934;
35.7240;-3.5443;1.6238;0.0457;0.6283;0.1222;0.5934;
35.7250;-3.5443;1.6238;0.0457;0.6283;0.1222;0.5934;
35.7260;-3.5443;1.6238;0.0457;-0.1920;0.0698;0.0000;
35.7270;-0.5942;2.2831;-3.1642;-0.1920;0.0698;0.0000;
35.7720;-0.5942;2.2831;-3.1642;-0.1920;0.0698;0.0000;
35.7730;-0.5942;2.2831;-3.1642;-0.1920;0.0698;0.0000;
35.7740;-0.5942;2.2831;-3.1642;-0.6806;0.2443;-0.5236;
35.7750;1.6528;-1.7840;-1.7926;-0.6806;0.2443;-0.5236;
35.8550;1.6528;-1.7840;-1.7926;-0.6806;0.2443;-0.5236;
35.8560;1.6528;-1.7840;-1.7926;-0.7505;0.3840;-0.7854;
35.8570;1.9500;0.2505;3.8345;-0.7505;0.3840;-0.7854;
35.8580;1.9500;0.2505;3.8345;-0.7505;0.3840;-0.7854;
35.9020;1.9500;0.2505;3.8345;-0.7505;0.3840;-0.7854;
35.9030;1.9500;0.2505;3.8345;-0.6458;0.3316;-0.7330;
35.9040;1.9665;-1.4679;3.9587;-0.6458;0.3316;-0.7330;
35.9050;1.9665;-1.4679;3.9587;-0.6458;0.3316;-0.7330;
35.9800;1.9665;-1.4679;3.9587;-0.6458;0.3316;-0.7330;
35.9830;1.9665;-1.4679;3.9587;-0.4887;0.1396;-0.5236;
35.9840;5.0787;-2.2073;-6.4609;-0.4887;0.1396;-0.5236;
35.9850;5.0787;-2.2073;-6.4609;-0.4887;0.1396;-0.5236;
36.0310;5.0787;-2.2073;-6.4609;-0.4887;0.1396;-0.5236;
36.0330;5.0787;-2.2073;-6.4609;-0.4887;0.1396;-0.5236;
36.0340;5.0787;-2.2073;-6.4609;-0.3840;0.1396;-0.3840;
36.0350;1.1373;-5.0345;-5.4546;-0.3840;0.1396;-0.3840;
36.1030;1.1373;-5.0345;-5.4546;-0.3840;0.1396;-0.3840;
36.1050;1.1373;-5.0345;-5.4546;-0.3141;0.3665;-0.3665;
36.1060;-6.2801;-2.0214;-1.0083;-0.3141;0.3665;-0.3665;
36.1140;-6.2801;-2.0214;-1.0083;-0.3141;0.3665;-0.3665;
36.1640;-6.2801;-2.0214;-1.0083;-0.3141;0.3665;-0.3665;
36.1650;-6.2801;-2.0214;-1.0083;-0.3141;0.3665;-0.3665;
36.1670;-6.2801;-2.0214;-1.0083;-0.2967;0.4189;-0.3840;
36.1680;-0.3577;5.2954;0.7224;-0.2967;0.4189;-0.3840;
36.2330;-0.3577;5.2954;0.7224;-0.2967;0.4189;-0.3840;
36.2340;-0.3577;5.2954;0.7224;-0.9250;0.2618;-2.7924;
36.2350;-1.1010;3.7765;-3.5114;-0.9250;0.2618;-2.7924;
36.2360;-1.1010;3.7765;-3.5114;-0.9250;0.2618;-2.7924;
36.2940;-1.1010;3.7765;-3.5114;-0.9250;0.2618;-2.7924;
36.2970;-1.1010;3.7765;-3.5114;-0.9250;0.2618;-2.7924;
36.2980;-1.1010;3.7765;-3.5114;-1.2566;0.2094;-4.1887;
36.2990;-2.0000;3.0291;-3.3289;-1.2566;0.2094;-4.1887;
36.3620;-2.0000;3.0291;-3.3289;-1.2566;0.2094;-4.1887;
36.3630;-2.0000;3.0291;-3.3289;-1.2566;0.2094;-4.1887;
36.3640;-2.0000;3.0291;-3.3289;-1.0646;0.3840;-4.2236;
36.3650;-1.6546;-5.5906;15.1135;-1.0646;0.3840;-4.2236;
36.4280;-1.6546;-5.5906;15.1135;-1.0646;0.3840;-4.2236;
36.4300;-1.6546;-5.5906;15.1135;-1.0646;0.3840;-4.2236;
36.4310;-1.6546;-5.5906;15.1135;-0.1222;0.9250;-1.7278;
36.4330;-3.3626;4.2242;4.3663;-0.1222;0.9250;-1.7278;
36.4970;-3.3626;4.2242;4.3663;-0.1222;0.9250;-1.7278;
36.4990;-3.3626;4.2242;4.3663;-0.1222;0.9250;-1.7278;
36.5000;-3.3626;4.2242;4.3663;0.5236;0.9424;-0.3316;
36.5010;1.4282;-1.6926;-3.0225;0.5236;0.9424;-0.3316;
36.5600;1.4282;-1.6926;-3.0225;0.5236;0.9424;-0.3316;
36.5610;1.4282;-1.6926;-3.0225;0.5236;0.9424;-0.3316;
36.5620;1.4282;-1.6926;-3.0225;1.2217;0.6806;3.3858;
36.5630;0.5959;-5.1054;-2.0830;1.2217;0.6806;3.3858;
36.6250;0.5959;-5.1054;-2.0830;1.2217;0.6806;3.3858;
36.6280;0.5959;-5.1054;-2.0830;1.2217;0.6806;3.3858;
36.6290;0.5959;-5.1054;-2.0830;1.5882;0.5934;3.6651;
36.6300;-2.8445;6.2381;-2.6156;1.5882;0.5934;3.6651;
36.6920;-2.8445;6.2381;-2.6156;1.5882;0.5934;3.6651;
36.6940;-2.8445;6.2381;-2.6156;1.5882;0.5934;3.6651;
36.6960;-2.8445;6.2381;-2.6156;1.6057;0.4712;3.7872;
36.6970;3.0776;0.1542;-1.3027;1.6057;0.4712;3.7872;
36.7570;3.0776;0.1542;-1.3027;1.6057;0.4712;3.7872;
36.7590;3.0776;0.1542;-1.3027;1.6057;0.4712;3.7872;
36.7600;3.0776;0.1542;-1.3027;0.8901;0.4189;1.4835;
36.7610;-0.3090;1.5777;4.5722;0.8901;0.4189;1.4835;
36.8240;-0.3090;1.5777;4.5722;0.8901;0.4189;1.4835;
36.8250;-0.3090;1.5777;4.5722;0.8901;0.4189;1.4835;
36.8260;-0.3090;1.5777;4.5722;0.1222;0.1222;0.0698;
36.8270;-0.0906;1.2893;-3.2716;0.1222;0.1222;0.0698;
36.8900;-0.0906;1.2893;-3.2716;0.1222;0.1222;0.0698;
36.8910;-0.0906;1.2893;-3.2716;0.1222;0.1222;0.0698;
36.8930;-0.0906;1.2893;-3.2716;-0.4014;-0.1047;-0.2443;
36.8940;0.1612;1.8511;-2.9709;-0.4014;-0.1047;-0.2443;
36.9560;0.1612;1.8511;-2.9709;-0.4014;-0.1047;-0.2443;
36.9580;0.1612;1.8511;-2.9709;-0.4014;-0.1047;-0.2443;
36.9590;0.1612;1.8511;-2.9709;-0.5934;-0.1396;-0.4887;
36.9600;1.5785;-0.0701;-1.1476;-0.5934;-0.1396;-0.4887;
37.0220;1.5785;-0.0701;-1.1476;-0.5934;-0.1396;-0.4887;
37.0240;1.5785;-0.0701;-1.1476;-0.5934;-0.1396;-0.4887;
37.0250;1.5785;-0.0701;-1.1476;-0.5759;-0.1396;-0.6283;
37.0270;-0.7163;-0.8329;2.0083;-0.5759;-0.1396;-0.6283;
37.0880;-0.7163;-0.8329;2.0083;-0.5759;-0.1396;-0.6283;
37.0900;-0.7163;-0.8329;2.0083;-0.5759;-0.1396;-0.6283;
37.0910;-0.7163;-0.8329;2.0083;-0.8377;-0.2094;-1.9198;
37.0920;3.2498;-3.4636;-1.5039;-0.8377;-0.2094;-1.9198;
37.1540;3.2498;-3.4636;-1.5039;-0.8377;-0.2094;-1.9198;
37.1550;3.2498;-3.4636;-1.5039;-0.8377;-0.2094;-1.9198;
37.1560;3.2498;-3.4636;-1.5039;-1.4835;-0.2618;-4.3632;
37.1570;10.6033;-2.3627;-6.5635;-1.4835;-0.2618;-4.3632;
37.2190;10.6033;-2.3627;-6.5635;-1.4835;-0.2618;-4.3632;
37.2210;10.6033;-2.3627;-6.5635;-1.4835;-0.2618;-4.3632;
37.2220;10.6033;-2.3627;-6.5635;-1.4486;-0.3316;-4.2410;
37.2230;-0.6261;-6.6116;-1.0800;-1.4486;-0.3316;-4.2410;
37.2850;-0.6261;-6.6116;-1.0800;-1.4486;-0.3316;-4.2410;
37.2870;-0.6261;-6.6116;-1.0800;-1.4486;-0.3316;-4.2410;
37.2880;-0.6261;-6.6116;-1.0800;-1.3962;-0.2792;-4.0665;
37.2890;-5.9399;3.0406;-0.7273;-1.3962;-0.2792;-4.0665;
37.3500;-5.9399;3.0406;-0.7273;-1.3962;-0.2792;-4.0665;
37.3530;-5.9399;3.0406;-0.7273;-1.3962;-0.2792;-4.0665;
37.3540;-5.9399;3.0406;-0.7273;-0.3665;-0.1920;0.0524;
37.3550;-0.0618;2.8673;3.5531;-0.3665;-0.1920;0.0524;
37.4160;-0.0618;2.8673;3.5531;-0.3665;-0.1920;0.0524;
37.4190;-0.0618;2.8673;3.5531;-0.3665;-0.1920;0.0524;
37.4200;-0.0618;2.8673;3.5531;-0.3316;0.2269;0.0000;
37.4210;1.3792;1.1007;-2.3113;-0.3316;0.2269;0.0000;
37.4820;1.3792;1.1007;-2.3113;-0.3316;0.2269;0.0000;
37.4850;1.3792;1.1007;-2.3113;-0.3316;0.2269;0.0000;
37.4860;1.3792;1.1007;-2.3113;-0.1396;0.4887;-0.1571;
37.4870;1.6812;-1.9330;2.9651;-0.1396;0.4887;-0.1571;
37.5480;1.6812;-1.9330;2.9651;-0.1396;0.4887;-0.1571;
37.5510;1.6812;-1.9330;2.9651;-0.1396;0.4887;-0.1571;
37.5520;1.6812;-1.9330;2.9651;0.1222;0.6108;-0.2792;
37.5560;-2.9379;-0.4541;0.9950;0.1222;0.6108;-0.2792;
37.6160;-2.9379;-0.4541;0.9950;0.1222;0.6108;-0.2792;
37.6180;-2.9379;-0.4541;0.9950;0.1222;0.6108;-0.2792;
37.6190;-2.9379;-0.4541;0.9950;0.3665;0.5934;-0.2443;
37.6210;-4.5866;2.9312;0.0794;0.3665;0.5934;-0.2443;
37.6820;-4.5866;2.9312;0.0794;0.3665;0.5934;-0.2443;
37.6840;-4.5866;2.9312;0.0794;0.3665;0.5934;-0.2443;
37.6850;-4.5866;2.9312;0.0794;0.5236;0.5061;-0.1222;
37.6920;1.1821;3.2375;4.8758;0.5236;0.5061;-0.1222;
37.7480;1.1821;3.2375;4.8758;0.5236;0.5061;-0.1222;
37.7740;1.1821;3.2375;4.8758;0.5236;0.5061;-0.1222;
37.7750;1.1821;3.2375;4.8758;0.9948;0.3141;1.1693;
37.7760;0.9031;1.2790;5.3341;0.9948;0.3141;1.1693;
37.8130;0.9031;1.2790;5.3341;0.9948;0.3141;1.1693;
37.8180;0.9031;1.2790;5.3341;0.9948;0.3141;1.1693;
37.8190;0.9031;1.2790;5.3341;1.6231;0.2443;3.6476;
37.8200;-0.7963;-0.2385;6.1843;1.6231;0.2443;3.6476;
37.9110;-0.7963;-0.2385;6.1843;1.6231;0.2443;3.6476;
37.9190;-0.7963;-0.2385;6.1843;1.6405;0.4014;3.5778;
37.9230;-1.0618;-4.4635;0.5151;1.6405;0.4014;3.5778;
37.9240;-1.0618;-4.4635;0.5151;1.6405;0.4014;3.5778;
37.9480;-1.0618;-4.4635;0.5151;1.6405;0.4014;3.5778;
37.9490;-1.0618;-4.4635;0.5151;1.5882;0.7505;3.4556;
37.9530;-7.3865;1.3348;-0.4810;1.5882;0.7505;3.4556;
37.9540;-7.3865;1.3348;-0.4810;1.5882;0.7505;3.4556;
38.0160;-7.3865;1.3348;-0.4810;1.5882;0.7505;3.4556;
38.0170;-7.3865;1.3348;-0.4810;0.6806;1.1868;-0.3665;
38.0180;3.0071;-1.1404;-3.2655;0.6806;1.1868;-0.3665;
38.0240;3.0071;-1.1404;-3.2655;0.6806;1.1868;-0.3665;
38.0780;3.0071;-1.1404;-3.2655;0.6806;1.1868;-0.3665;
38.0790;3.0071;-1.1404;-3.2655;0.6806;1.1868;-0.3665;
38.0800;3.0071;-1.1404;-3.2655;0.6283;1.1344;-0.2967;
38.0810;5.0374;0.0746;-3.3599;0.6283;1.1344;-0.2967;
38.1540;5.0374;0.0746;-3.3599;0.6283;1.1344;-0.2967;
38.1550;5.0374;0.0746;-3.3599;0.4363;0.6108;0.0872;
38.1560;-0.1543;2.6293;0.9035;0.4363;0.6108;0.0872;
38.1600;-0.1543;2.6293;0.9035;0.4363;0.6108;0.0872;
38.2100;-0.1543;2.6293;0.9035;0.4363;0.6108;0.0872;
38.2110;-0.1543;2.6293;0.9035;0.4363;0.6108;0.0872;
38.2130;-0.1543;2.6293;0.9035;0.1222;0.0000;0.3490;
38.2140;0.9491;1.7110;1.1507;0.1222;0.0000;0.3490;
38.2850;0.9491;1.7110;1.1507;0.1222;0.0000;0.3490;
38.2870;0.9491;1.7110;1.1507;0.1222;0.0000;0.3490;
38.2880;0.9491;1.7110;1.1507;-0.3490;-0.4189;0.2792;
38.2890;-0.2068;1.4182;-2.1989;-0.3490;-0.4189;0.2792;
38.3410;-0.2068;1.4182;-2.1989;-0.3490;-0.4189;0.2792;
38.3480;-0.2068;1.4182;-2.1989;-0.3490;-0.4189;0.2792;
38.3490;-0.2068;1.4182;-2.1989;-0.7330;-0.4538;-0.1222;
38.3500;-0.2772;-3.0277;-1.8003;-0.7330;-0.4538;-0.1222;
38.4070;-0.2772;-3.0277;-1.8003;-0.7330;-0.4538;-0.1222;
38.4090;-0.2772;-3.0277;-1.8003;-0.7330;-0.4538;-0.1222;
38.4100;-0.2772;-3.0277;-1.8003;-0.8726;-0.2443;-0.5585;
38.4110;1.9298;-1.5724;0.8411;-0.8726;-0.2443;-0.5585;
38.4740;1.9298;-1.5724;0.8411;-0.8726;-0.2443;-0.5585;
38.4760;1.9298;-1.5724;0.8411;-0.8726;-0.2443;-0.5585;
38.4770;1.9298;-1.5724;0.8411;-0.7330;-0.1745;-0.5410;
38.4790;5.6355;0.3150;2.9512;-0.7330;-0.1745;-0.5410;
38.5390;5.6355;0.3150;2.9512;-0.7330;-0.1745;-0.5410;
38.5420;5.6355;0.3150;2.9512;-0.7330;-0.1745;-0.5410;
38.5430;5.6355;0.3150;2.9512;-0.5061;-0.1571;-0.3490;
38.5440;3.0965;-1.8094;-8.3803;-0.5061;-0.1571;-0.3490;
38.6050;3.0965;-1.8094;-8.3803;-0.5061;-0.1571;-0.3490;
38.6080;3.0965;-1.8094;-8.3803;-0.5061;-0.1571;-0.3490;
38.6090;3.0965;-1.8094;-8.3803;-0.3141;-0.0698;-0.2094;
38.6100;-2.0071;-6.3291;-5.7714;-0.3141;-0.0698;-0.2094;
38.6710;-2.0071;-6.3291;-5.7714;-0.3141;-0.0698;-0.2094;
38.6740;-2.0071;-6.3291;-5.7714;-0.3141;-0.0698;-0.2094;
38.6750;-2.0071;-6.3291;-5.7714;-0.2443;0.1047;-0.1920;
38.6760;-4.8945;0.2961;3.6798;-0.2443;0.1047;-0.1920;
38.7370;-4.8945;0.2961;3.6798;-0.2443;0.1047;-0.1920;
38.7390;-4.8945;0.2961;3.6798;-0.2443;0.1047;-0.1920;
38.7400;-4.8945;0.2961;3.6798;-0.7854;0.1571;-1.7278;
38.7410;-1.2341;5.2944;-1.2126;-0.7854;0.1571;-1.7278;
38.8040;-1.2341;5.2944;-1.2126;-0.7854;0.1571;-1.7278;
38.8060;-1.2341;5.2944;-1.2126;-0.7854;0.1571;-1.7278;
38.8080;-1.2341;5.2944;-1.2126;-1.8151;0.2967;-4.8344;
38.8090;-3.0287;5.2029;-3.4303;-1.8151;0.2967;-4.8344;
38.8700;-3.0287;5.2029;-3.4303;-1.8151;0.2967;-4.8344;
38.8720;-3.0287;5.2029;-3.4303;-1.8151;0.2967;-4.8344;
38.8740;-3.0287;5.2029;-3.4303;-1.6057;0.4538;-4.8868;
38.8750;-1.8729;0.3223;2.3674;-1.6057;0.4538;-4.8868;
38.9370;-1.8729;0.3223;2.3674;-1.6057;0.4538;-4.8868;
38.9390;-1.8729;0.3223;2.3674;-1.6057;0.4538;-4.8868;
38.9400;-1.8729;0.3223;2.3674;-0.8203;0.7679;-3.4207;
38.9430;-5.3856;-7.8551;9.0523;-0.8203;0.7679;-3.4207;
39.0020;-5.3856;-7.8551;9.0523;-0.8203;0.7679;-3.4207;
39.0040;-5.3856;-7.8551;9.0523;-0.8203;0.7679;-3.4207;
39.0050;-5.3856;-7.8551;9.0523;0.4538;0.9599;-0.4189;
39.0070;-2.8953;3.7608;-0.2183;0.4538;0.9599;-0.4189;
39.0670;-2.8953;3.7608;-0.2183;0.4538;0.9599;-0.4189;
39.0690;-2.8953;3.7608;-0.2183;0.4538;0.9599;-0.4189;
39.0700;-2.8953;3.7608;-0.2183;1.0123;0.8028;1.1519;
39.0710;2.3028;-4.0901;0.4897;1.0123;0.8028;1.1519;
39.1330;2.3028;-4.0901;0.4897;1.0123;0.8028;1.1519;
39.1350;2.3028;-4.0901;0.4897;1.0123;0.8028;1.1519;
39.1360;2.3028;-4.0901;0.4897;1.7104;0.6458;4.0141;
39.1370;-3.9960;5.3556;-3.9245;1.7104;0.6458;4.0141;
39.2000;-3.9960;5.3556;-3.9245;1.7104;0.6458;4.0141;
39.2020;-3.9960;5.3556;-3.9245;1.7104;0.6458;4.0141;
39.2030;-3.9960;5.3556;-3.9245;1.8500;0.5934;4.2934;
