
time;ax;ay;az;wx;wy;wz;
0.0070;0.4486;0.1872;-0.4948;0.1047;-0.0872;0.2094;
0.0070;0.4486;0.1872;-0.4948;0.1047;-0.0872;0.2094;
0.0080;0.4486;0.1872;-0.4948;0.0698;0.0000;-0.0174;
0.0080;-0.6020;0.1217;-0.1980;0.0698;0.0000;-0.0174;
0.0530;-0.6020;0.1217;-0.1980;0.0698;0.0000;-0.0174;
0.0570;-0.6020;0.1217;-0.1980;0.0698;0.0000;-0.0174;
0.0580;-0.6020;0.1217;-0.1980;0.0349;0.0524;-0.2443;
0.0590;-0.1875;0.2862;0.2820;0.0349;0.0524;-0.2443;
0.1190;-0.1875;0.2862;0.2820;0.0349;0.0524;-0.2443;
0.1240;-0.1875;0.2862;0.2820;0.0349;0.0524;-0.2443;
0.1240;-0.1875;0.2862;0.2820;0.0000;0.1222;-0.4538;
0.1250;-0.0407;0.2751;-0.7186;0.0000;0.1222;-0.4538;
0.1860;-0.0407;0.2751;-0.7186;0.0000;0.1222;-0.4538;
0.1900;-0.0407;0.2751;-0.7186;0.0000;0.1222;-0.4538;
0.1910;-0.0407;0.2751;-0.7186;0.0000;0.1920;-0.6108;
0.1910;-0.1974;0.0996;0.0596;0.0000;0.1920;-0.6108;
0.2510;-0.1974;0.0996;0.0596;0.0000;0.1920;-0.6108;
0.2550;-0.1974;0.0996;0.0596;0.0000;0.1920;-0.6108;
0.2560;-0.1974;0.0996;0.0596;0.0349;0.2269;-0.6283;
0.2560;-0.4416;-0.0984;0.4183;0.0349;0.2269;-0.6283;
0.3170;-0.4416;-0.0984;0.4183;0.0349;0.2269;-0.6283;
0.3210;-0.4416;-0.0984;0.4183;0.0349;0.2269;-0.6283;
0.3230;-0.4416;-0.0984;0.4183;0.0698;0.2269;-0.5759;
0.3230;-0.7238;0.5695;-0.1086;0.0698;0.2269;-0.5759;
0.4300;-0.7238;0.5695;-0.1086;0.0698;0.2269;-0.5759;
0.4300;-0.7238;0.5695;-0.1086;0.0872;0.1571;-0.2792;
0.4310;-0.4843;0.4402;0.0394;0.0872;0.1571;-0.2792;
0.4320;-0.4843;0.4402;0.0394;0.0872;0.1571;-0.2792;
0.4490;-0.4843;0.4402;0.0394;0.0872;0.1571;-0.2792;
0.4530;-0.4843;0.4402;0.0394;0.0872;0.1571;-0.2792;
0.4540;-0.4843;0.4402;0.0394;0.0872;0.1396;-0.2269;
0.4540;0.5320;0.1818;0.0573;0.0872;0.1396;-0.2269;
0.5140;0.5320;0.1818;0.0573;0.0872;0.1396;-0.2269;
0.5190;0.5320;0.1818;0.0573;0.0872;0.1396;-0.2269;
0.5200;0.5320;0.1818;0.0573;0.0872;0.1047;-0.1222;
0.5200;0.5980;0.3828;-0.0880;0.0872;0.1047;-0.1222;
0.5800;0.5980;0.3828;-0.0880;0.0872;0.1047;-0.1222;
0.5850;0.5980;0.3828;-0.0880;0.0872;0.1047;-0.1222;
0.5860;0.5980;0.3828;-0.0880;0.0872;0.0872;-0.0698;
0.5860;1.1816;0.1243;-0.3296;0.0872;0.0872;-0.0698;
0.6470;1.1816;0.1243;-0.3296;0.0872;0.0872;-0.0698;
0.6510;1.1816;0.1243;-0.3296;0.0872;0.0872;-0.0698;
0.6520;1.1816;0.1243;-0.3296;0.1047;0.0524;0.0349;
0.6530;1.2720;0.3290;-0.3515;0.1047;0.0524;0.0349;
0.7130;1.2720;0.3290;-0.3515;0.1047;0.0524;0.0349;
0.7170;1.2720;0.3290;-0.3515;0.1047;0.0524;0.0349;
0.7180;1.2720;0.3290;-0.3515;0.0698;-0.0174;0.2618;
0.7180;1.6557;0.3876;0.0256;0.0698;-0.0174;0.2618;
0.7810;1.6557;0.3876;0.0256;0.0698;-0.0174;0.2618;
0.7830;1.6557;0.3876;0.0256;0.0698;-0.0174;0.2618;
0.7840;1.6557;0.3876;0.0256;0.0174;-0.1396;0.5585;
0.7850;1.8731;0.1909;0.2325;0.0174;-0.1396;0.5585;
0.8440;1.8731;0.1909;0.2325;0.0174;-0.1396;0.5585;
0.8490;1.8731;0.1909;0.2325;0.0174;-0.1396;0.5585;
0.8500;1.8731;0.1909;0.2325;-0.0174;-0.2792;0.9424;
0.8500;1.8687;0.1122;-0.5303;-0.0174;-0.2792;0.9424;
0.9120;1.8687;0.1122;-0.5303;-0.0174;-0.2792;0.9424;
0.9150;1.8687;0.1122;-0.5303;-0.0174;-0.2792;0.9424;
0.9160;1.8687;0.1122;-0.5303;-0.0174;-0.3665;1.1344;
0.9160;2.4428;-0.3107;0.0286;-0.0174;-0.3665;1.1344;
0.9760;2.4428;-0.3107;0.0286;-0.0174;-0.3665;1.1344;
0.9810;2.4428;-0.3107;0.0286;-0.0174;-0.3665;1.1344;
0.9820;2.4428;-0.3107;0.0286;0.0000;-0.4014;1.2217;
0.9820;2.5091;-0.5375;0.2354;0.0000;-0.4014;1.2217;
1.0430;2.5091;-0.5375;0.2354;0.0000;-0.4014;1.2217;
1.0470;2.5091;-0.5375;0.2354;0.0000;-0.4014;1.2217;
1.0480;2.5091;-0.5375;0.2354;0.0000;-0.4189;1.2566;
1.0480;3.7786;-0.5359;-0.3731;0.0000;-0.4189;1.2566;
1.1090;3.7786;-0.5359;-0.3731;0.0000;-0.4189;1.2566;
1.1130;3.7786;-0.5359;-0.3731;0.0000;-0.4189;1.2566;
1.1140;3.7786;-0.5359;-0.3731;0.0000;-0.4363;1.2566;
1.1150;1.3627;-0.9050;1.1911;0.0000;-0.4363;1.2566;
1.1750;1.3627;-0.9050;1.1911;0.0000;-0.4363;1.2566;
1.1790;1.3627;-0.9050;1.1911;0.0000;-0.4363;1.2566;
1.1800;1.3627;-0.9050;1.1911;0.0000;-0.4363;1.2566;
1.1810;0.5610;-0.9222;-0.6644;0.0000;-0.4363;1.2566;
1.2410;0.5610;-0.9222;-0.6644;0.0000;-0.4363;1.2566;
1.2450;0.5610;-0.9222;-0.6644;0.0000;-0.4363;1.2566;
1.2460;0.5610;-0.9222;-0.6644;-0.0349;-0.4189;1.2566;
1.2470;-0.1231;-0.6611;-0.3448;-0.0349;-0.4189;1.2566;
1.3070;-0.1231;-0.6611;-0.3448;-0.0349;-0.4189;1.2566;
1.3110;-0.1231;-0.6611;-0.3448;-0.0349;-0.4189;1.2566;
1.3120;-0.1231;-0.6611;-0.3448;-0.0698;-0.3665;1.0995;
1.3130;1.4799;0.3277;-0.0909;-0.0698;-0.3665;1.0995;
1.3730;1.4799;0.3277;-0.0909;-0.0698;-0.3665;1.0995;
1.3770;1.4799;0.3277;-0.0909;-0.0698;-0.3665;1.0995;
1.3780;1.4799;0.3277;-0.0909;-0.1920;-0.1571;0.5236;
1.3790;-0.9039;-0.0637;-0.9818;-0.1920;-0.1571;0.5236;
1.4390;-0.9039;-0.0637;-0.9818;-0.1920;-0.1571;0.5236;
1.4430;-0.9039;-0.0637;-0.9818;-0.1920;-0.1571;0.5236;
1.4440;-0.9039;-0.0637;-0.9818;-0.2792;0.0174;-0.0872;
1.4450;-0.8073;-0.2120;0.9682;-0.2792;0.0174;-0.0872;
1.5050;-0.8073;-0.2120;0.9682;-0.2792;0.0174;-0.0872;
1.5090;-0.8073;-0.2120;0.9682;-0.2792;0.0174;-0.0872;
1.5100;-0.8073;-0.2120;0.9682;-0.3316;0.1571;-0.7505;
1.5110;-1.2450;-0.7070;0.3723;-0.3316;0.1571;-0.7505;
1.5710;-1.2450;-0.7070;0.3723;-0.3316;0.1571;-0.7505;
1.5750;-1.2450;-0.7070;0.3723;-0.3316;0.1571;-0.7505;
1.5760;-1.2450;-0.7070;0.3723;-0.3141;0.2967;-1.5009;
1.5770;-2.0103;0.5193;-0.4211;-0.3141;0.2967;-1.5009;
1.6370;-2.0103;0.5193;-0.4211;-0.3141;0.2967;-1.5009;
1.6410;-2.0103;0.5193;-0.4211;-0.3141;0.2967;-1.5009;
1.6420;-2.0103;0.5193;-0.4211;-0.2443;0.3665;-1.9896;
1.6430;-1.6695;-0.3127;-2.4120;-0.2443;0.3665;-1.9896;
1.7030;-1.6695;-0.3127;-2.4120;-0.2443;0.3665;-1.9896;
1.7070;-1.6695;-0.3127;-2.4120;-0.2443;0.3665;-1.9896;
1.7080;-1.6695;-0.3127;-2.4120;-0.1396;0.4538;-2.3212;
1.7090;-1.5568;-0.9554;-2.3245;-0.1396;0.4538;-2.3212;
1.7690;-1.5568;-0.9554;-2.3245;-0.1396;0.4538;-2.3212;
1.7730;-1.5568;-0.9554;-2.3245;-0.1396;0.4538;-2.3212;
1.7740;-1.5568;-0.9554;-2.3245;-0.0349;0.5061;-2.3736;
1.7750;-1.8109;-2.3559;2.3427;-0.0349;0.5061;-2.3736;
1.8350;-1.8109;-2.3559;2.3427;-0.0349;0.5061;-2.3736;
1.8390;-1.8109;-2.3559;2.3427;-0.0349;0.5061;-2.3736;
1.8400;-1.8109;-2.3559;2.3427;0.0349;0.5061;-2.1467;
1.8410;0.5689;-3.5601;2.2610;0.0349;0.5061;-2.1467;
1.9010;0.5689;-3.5601;2.2610;0.0349;0.5061;-2.1467;
1.9050;0.5689;-3.5601;2.2610;0.0349;0.5061;-2.1467;
1.9060;0.5689;-3.5601;2.2610;0.0174;0.4538;-1.7976;
1.9070;0.9553;-3.8177;1.9003;0.0174;0.4538;-1.7976;
1.9670;0.9553;-3.8177;1.9003;0.0174;0.4538;-1.7976;
1.9740;0.9553;-3.8177;1.9003;0.0174;0.4538;-1.7976;
1.9740;0.9553;-3.8177;1.9003;-0.1571;0.3490;-1.3613;
1.9750;-1.0844;-4.5219;2.2789;-0.1571;0.3490;-1.3613;
2.0330;-1.0844;-4.5219;2.2789;-0.1571;0.3490;-1.3613;
2.0370;-1.0844;-4.5219;2.2789;-0.1571;0.3490;-1.3613;
2.0400;-1.0844;-4.5219;2.2789;-0.4887;0.1571;-0.7505;
2.0400;-1.8665;-5.4494;3.2254;-0.4887;0.1571;-0.7505;
2.1260;-1.8665;-5.4494;3.2254;-0.4887;0.1571;-0.7505;
2.1260;-1.8665;-5.4494;3.2254;-0.4887;0.1571;-0.7505;
2.1310;-1.8665;-5.4494;3.2254;-0.9075;-0.1571;0.2618;
2.1320;-4.7896;-5.2004;-4.2089;-0.9075;-0.1571;0.2618;
2.1650;-4.7896;-5.2004;-4.2089;-0.9075;-0.1571;0.2618;
2.1710;-4.7896;-5.2004;-4.2089;-0.9075;-0.1571;0.2618;
2.1710;-4.7896;-5.2004;-4.2089;-1.1519;-0.3316;0.9424;
2.1720;-2.0738;-4.4740;-2.0442;-1.1519;-0.3316;0.9424;
2.2310;-2.0738;-4.4740;-2.0442;-1.1519;-0.3316;0.9424;
2.2350;-2.0738;-4.4740;-2.0442;-1.1519;-0.3316;0.9424;
2.2360;-2.0738;-4.4740;-2.0442;-1.2391;-0.2618;1.0472;
2.2360;-1.8531;-3.2077;-2.2702;-1.2391;-0.2618;1.0472;
2.2960;-1.8531;-3.2077;-2.2702;-1.2391;-0.2618;1.0472;
2.3030;-1.8531;-3.2077;-2.2702;-1.2391;-0.2618;1.0472;
2.3040;-1.8531;-3.2077;-2.2702;-1.2566;0.2094;0.4712;
2.3040;-0.8730;-1.4830;-5.0041;-1.2566;0.2094;0.4712;
2.3630;-0.8730;-1.4830;-5.0041;-1.2566;0.2094;0.4712;
2.3670;-0.8730;-1.4830;-5.0041;-1.2566;0.2094;0.4712;
2.3680;-0.8730;-1.4830;-5.0041;-1.1693;0.6108;-0.0872;
2.3680;-5.9878;-6.3893;-0.4462;-1.1693;0.6108;-0.0872;
2.4290;-5.9878;-6.3893;-0.4462;-1.1693;0.6108;-0.0872;
2.4360;-5.9878;-6.3893;-0.4462;-1.1693;0.6108;-0.0872;
2.4370;-5.9878;-6.3893;-0.4462;-1.0646;0.7854;-0.2094;
2.4370;-0.9968;-5.2878;-3.8805;-1.0646;0.7854;-0.2094;
2.4940;-0.9968;-5.2878;-3.8805;-1.0646;0.7854;-0.2094;
2.4990;-0.9968;-5.2878;-3.8805;-1.0646;0.7854;-0.2094;
2.5000;-0.9968;-5.2878;-3.8805;-0.9250;0.7505;-0.1047;
2.5000;-2.6707;-3.6336;-4.8103;-0.9250;0.7505;-0.1047;
2.5600;-2.6707;-3.6336;-4.8103;-0.9250;0.7505;-0.1047;
2.5650;-2.6707;-3.6336;-4.8103;-0.9250;0.7505;-0.1047;
2.5660;-2.6707;-3.6336;-4.8103;-0.8203;0.7854;-0.0524;
2.5660;-1.3791;-3.2328;-5.1019;-0.8203;0.7854;-0.0524;
2.6260;-1.3791;-3.2328;-5.1019;-0.8203;0.7854;-0.0524;
2.6310;-1.3791;-3.2328;-5.1019;-0.8203;0.7854;-0.0524;
2.6320;-1.3791;-3.2328;-5.1019;-0.7505;1.1344;-0.2967;
2.6320;1.0083;-3.5883;-5.5375;-0.7505;1.1344;-0.2967;
2.6920;1.0083;-3.5883;-5.5375;-0.7505;1.1344;-0.2967;
2.6970;1.0083;-3.5883;-5.5375;-0.7505;1.1344;-0.2967;
2.6980;1.0083;-3.5883;-5.5375;-0.7330;1.4311;-0.5410;
2.6980;2.0111;-0.8133;-9.7282;-0.7330;1.4311;-0.5410;
2.7580;2.0111;-0.8133;-9.7282;-0.7330;1.4311;-0.5410;
2.7640;2.0111;-0.8133;-9.7282;-0.7330;1.4311;-0.5410;
2.7650;2.0111;-0.8133;-9.7282;-0.7330;1.5184;-0.6632;
2.7650;-7.9324;-12.7100;-6.0428;-0.7330;1.5184;-0.6632;
2.8250;-7.9324;-12.7100;-6.0428;-0.7330;1.5184;-0.6632;
2.8320;-7.9324;-12.7100;-6.0428;-0.7330;1.5184;-0.6632;
2.8330;-7.9324;-12.7100;-6.0428;-0.8028;1.6057;-0.8552;
2.8340;-2.4931;-4.2468;-7.5115;-0.8028;1.6057;-0.8552;
2.8900;-2.4931;-4.2468;-7.5115;-0.8028;1.6057;-0.8552;
2.8950;-2.4931;-4.2468;-7.5115;-0.8028;1.6057;-0.8552;
2.8960;-2.4931;-4.2468;-7.5115;-0.8028;2.0594;-1.2042;
2.8960;-5.1224;-0.5626;-2.6990;-0.8028;2.0594;-1.2042;
2.9570;-5.1224;-0.5626;-2.6990;-0.8028;2.0594;-1.2042;
2.9610;-5.1224;-0.5626;-2.6990;-0.8028;2.0594;-1.2042;
2.9620;-5.1224;-0.5626;-2.6990;-0.7854;2.5656;-1.3962;
2.9620;-3.7103;-1.2456;-2.3648;-0.7854;2.5656;-1.3962;
3.0220;-3.7103;-1.2456;-2.3648;-0.7854;2.5656;-1.3962;
3.0270;-3.7103;-1.2456;-2.3648;-0.7854;2.5656;-1.3962;
3.0280;-3.7103;-1.2456;-2.3648;-0.8203;2.3910;-1.2042;
3.0280;-4.1551;-0.9073;-1.7311;-0.8203;2.3910;-1.2042;
3.0900;-4.1551;-0.9073;-1.7311;-0.8203;2.3910;-1.2042;
3.0930;-4.1551;-0.9073;-1.7311;-0.8203;2.3910;-1.2042;
3.0940;-4.1551;-0.9073;-1.7311;-0.9250;0.7854;-0.2269;
3.0950;-3.3812;0.7170;-2.5345;-0.9250;0.7854;-0.2269;
3.1550;-3.3812;0.7170;-2.5345;-0.9250;0.7854;-0.2269;
3.1590;-3.3812;0.7170;-2.5345;-0.9250;0.7854;-0.2269;
3.1600;-3.3812;0.7170;-2.5345;-0.9599;-0.6981;0.5236;
3.1610;-2.7887;-1.7479;-3.0068;-0.9599;-0.6981;0.5236;
3.2240;-2.7887;-1.7479;-3.0068;-0.9599;-0.6981;0.5236;
3.2280;-2.7887;-1.7479;-3.0068;-0.9599;-0.6981;0.5236;
3.2290;-2.7887;-1.7479;-3.0068;-0.7330;-1.2740;0.9250;
3.2300;-2.9892;0.7142;-1.1457;-0.7330;-1.2740;0.9250;
3.2870;-2.9892;0.7142;-1.1457;-0.7330;-1.2740;0.9250;
3.2910;-2.9892;0.7142;-1.1457;-0.7330;-1.2740;0.9250;
3.2920;-2.9892;0.7142;-1.1457;-0.4189;-1.1693;1.0123;
3.2930;-1.4317;-0.1880;-0.1778;-0.4189;-1.1693;1.0123;
3.3530;-1.4317;-0.1880;-0.1778;-0.4189;-1.1693;1.0123;
3.3570;-1.4317;-0.1880;-0.1778;-0.4189;-1.1693;1.0123;
3.3580;-1.4317;-0.1880;-0.1778;-0.0872;-0.6458;0.9424;
3.3580;-0.2710;1.0353;0.0943;-0.0872;-0.6458;0.9424;
3.4180;-0.2710;1.0353;0.0943;-0.0872;-0.6458;0.9424;
3.4230;-0.2710;1.0353;0.0943;-0.0872;-0.6458;0.9424;
3.4240;-0.2710;1.0353;0.0943;0.1571;-0.1745;0.7505;
3.4240;0.4463;2.7652;0.4254;0.1571;-0.1745;0.7505;
3.4890;0.4463;2.7652;0.4254;0.1571;-0.1745;0.7505;
3.4900;0.4463;2.7652;0.4254;0.1571;-0.1745;0.7505;
3.4910;0.4463;2.7652;0.4254;0.2967;0.0000;0.5759;
3.5030;-0.0857;4.3082;1.0321;0.2967;0.0000;0.5759;
3.5500;-0.0857;4.3082;1.0321;0.2967;0.0000;0.5759;
3.5550;-0.0857;4.3082;1.0321;0.2967;0.0000;0.5759;
3.5560;-0.0857;4.3082;1.0321;0.3141;-0.1047;0.3665;
3.5560;-2.2744;2.9346;4.5120;0.3141;-0.1047;0.3665;
3.6170;-2.2744;2.9346;4.5120;0.3141;-0.1047;0.3665;
3.6210;-2.2744;2.9346;4.5120;0.3141;-0.1047;0.3665;
3.6220;-2.2744;2.9346;4.5120;0.2618;-0.3665;0.3141;
3.6230;-4.7989;1.8807;4.9271;0.2618;-0.3665;0.3141;
3.6830;-4.7989;1.8807;4.9271;0.2618;-0.3665;0.3141;
3.6870;-4.7989;1.8807;4.9271;0.2618;-0.3665;0.3141;
3.6890;-4.7989;1.8807;4.9271;0.1745;-0.7330;0.4189;
3.6900;2.9702;1.6496;-3.1097;0.1745;-0.7330;0.4189;
3.7490;2.9702;1.6496;-3.1097;0.1745;-0.7330;0.4189;
3.7540;2.9702;1.6496;-3.1097;0.1745;-0.7330;0.4189;
3.7550;2.9702;1.6496;-3.1097;0.1222;-1.0995;0.6806;
3.7810;1.1613;-10.9486;4.7020;0.1222;-1.0995;0.6806;
3.9660;1.1613;-10.9486;4.7020;0.1222;-1.0995;0.6806;
3.9670;1.1613;-10.9486;4.7020;0.1222;-1.0995;0.6806;
3.9680;1.1613;-10.9486;4.7020;0.0872;-1.2042;0.8203;
3.9700;1.0488;3.2225;-2.1600;0.0872;-1.2042;0.8203;
4.0310;1.0488;3.2225;-2.1600;0.0872;-1.2042;0.8203;
4.0330;1.0488;3.2225;-2.1600;0.0872;-1.2042;0.8203;
4.0340;1.0488;3.2225;-2.1600;0.0174;-0.8726;0.6108;
4.0350;-2.7193;0.2835;-5.9514;0.0174;-0.8726;0.6108;
4.0940;-2.7193;0.2835;-5.9514;0.0174;-0.8726;0.6108;
4.0990;-2.7193;0.2835;-5.9514;0.0174;-0.8726;0.6108;
4.1000;-2.7193;0.2835;-5.9514;-0.1920;0.0349;-0.3316;
4.1010;-0.5941;1.6489;-0.5776;-0.1920;0.0349;-0.3316;
4.1600;-0.5941;1.6489;-0.5776;-0.1920;0.0349;-0.3316;
4.1650;-0.5941;1.6489;-0.5776;-0.1920;0.0349;-0.3316;
4.1660;-0.5941;1.6489;-0.5776;-0.1222;1.1344;-0.9773;
4.1670;2.0295;-1.4948;-3.4637;-0.1222;1.1344;-0.9773;
4.2280;2.0295;-1.4948;-3.4637;-0.1222;1.1344;-0.9773;
4.2310;2.0295;-1.4948;-3.4637;-0.1222;1.1344;-0.9773;
4.2330;2.0295;-1.4948;-3.4637;0.1571;2.2165;-1.1170;
4.2330;0.7303;-0.4178;-3.6913;0.1571;2.2165;-1.1170;
4.2920;0.7303;-0.4178;-3.6913;0.1571;2.2165;-1.1170;
4.2970;0.7303;-0.4178;-3.6913;0.1571;2.2165;-1.1170;
4.2980;0.7303;-0.4178;-3.6913;0.4363;2.7750;-0.9075;
4.2990;-0.1015;-0.4333;-2.5669;0.4363;2.7750;-0.9075;
4.3580;-0.1015;-0.4333;-2.5669;0.4363;2.7750;-0.9075;
4.3620;-0.1015;-0.4333;-2.5669;0.4363;2.7750;-0.9075;
4.3630;-0.1015;-0.4333;-2.5669;0.3665;2.4783;-0.3316;
4.3640;-0.0653;-2.2810;-1.4278;0.3665;2.4783;-0.3316;
4.4240;-0.0653;-2.2810;-1.4278;0.3665;2.4783;-0.3316;
4.4280;-0.0653;-2.2810;-1.4278;0.3665;2.4783;-0.3316;
4.4290;-0.0653;-2.2810;-1.4278;-0.1222;1.4311;4.3981;
4.4290;-1.9762;-1.3176;-4.0714;-0.1222;1.4311;4.3981;
4.4910;-1.9762;-1.3176;-4.0714;-0.1222;1.4311;4.3981;
4.4950;-1.9762;-1.3176;-4.0714;-0.1222;1.4311;4.3981;
4.4960;-1.9762;-1.3176;-4.0714;-0.3665;0.5410;4.5203;
4.4970;-2.9149;0.8168;-1.0132;-0.3665;0.5410;4.5203;
4.5560;-2.9149;0.8168;-1.0132;-0.3665;0.5410;4.5203;
4.5620;-2.9149;0.8168;-1.0132;-0.3665;0.5410;4.5203;
4.5630;-2.9149;0.8168;-1.0132;-0.4189;0.0000;4.5552;
4.5640;-3.4943;-0.5370;2.6645;-0.4189;0.0000;4.5552;
4.6220;-3.4943;-0.5370;2.6645;-0.4189;0.0000;4.5552;
4.6270;-3.4943;-0.5370;2.6645;-0.4189;0.0000;4.5552;
4.6270;-3.4943;-0.5370;2.6645;-0.2443;-0.1222;0.0174;
4.6280;-2.5914;-5.3954;-1.4730;-0.2443;-0.1222;0.0174;
4.6880;-2.5914;-5.3954;-1.4730;-0.2443;-0.1222;0.0174;
4.6920;-2.5914;-5.3954;-1.4730;-0.2443;-0.1222;0.0174;
4.6930;-2.5914;-5.3954;-1.4730;-0.0524;0.0000;-0.1745;
4.6930;2.0800;-3.7291;-0.3365;-0.0524;0.0000;-0.1745;
4.7540;2.0800;-3.7291;-0.3365;-0.0524;0.0000;-0.1745;
4.7580;2.0800;-3.7291;-0.3365;-0.0524;0.0000;-0.1745;
4.7590;2.0800;-3.7291;-0.3365;0.1745;0.0174;-0.3840;
4.7590;0.1131;1.8301;-2.5743;0.1745;0.0174;-0.3840;
4.8200;0.1131;1.8301;-2.5743;0.1745;0.0174;-0.3840;
4.8240;0.1131;1.8301;-2.5743;0.1745;0.0174;-0.3840;
4.8250;0.1131;1.8301;-2.5743;0.5934;-0.1571;-0.3665;
4.8250;3.1283;0.7554;-2.1918;0.5934;-0.1571;-0.3665;
4.8860;3.1283;0.7554;-2.1918;0.5934;-0.1571;-0.3665;
4.8900;3.1283;0.7554;-2.1918;0.5934;-0.1571;-0.3665;
4.8910;3.1283;0.7554;-2.1918;0.8203;-0.4363;-0.1047;
4.8910;5.8438;1.7955;-1.7015;0.8203;-0.4363;-0.1047;
4.9520;5.8438;1.7955;-1.7015;0.8203;-0.4363;-0.1047;
4.9560;5.8438;1.7955;-1.7015;0.8203;-0.4363;-0.1047;
4.9570;5.8438;1.7955;-1.7015;0.8726;-0.6981;0.1396;
4.9580;2.9070;1.3383;6.5774;0.8726;-0.6981;0.1396;
5.0180;2.9070;1.3383;6.5774;0.8726;-0.6981;0.1396;
5.0300;2.9070;1.3383;6.5774;0.8726;-0.6981;0.1396;
5.0310;2.9070;1.3383;6.5774;0.8028;-0.9250;0.3316;
5.0310;-8.8592;1.8824;10.4425;0.8028;-0.9250;0.3316;
5.0870;-8.8592;1.8824;10.4425;0.8028;-0.9250;0.3316;
5.0880;-8.8592;1.8824;10.4425;0.8028;-0.9250;0.3316;
5.0900;-8.8592;1.8824;10.4425;0.6981;-0.8901;0.4014;
5.0910;2.4590;4.2512;0.3918;0.6981;-0.8901;0.4014;
5.1730;2.4590;4.2512;0.3918;0.6981;-0.8901;0.4014;
5.1730;2.4590;4.2512;0.3918;1.0123;-0.6806;-4.5552;
5.1740;-4.4893;-8.3368;-2.4491;1.0123;-0.6806;-4.5552;
5.1750;-4.4893;-8.3368;-2.4491;1.0123;-0.6806;-4.5552;
5.2160;-4.4893;-8.3368;-2.4491;1.0123;-0.6806;-4.5552;
5.2200;-4.4893;-8.3368;-2.4491;1.0123;-0.6806;-4.5552;
5.2210;-4.4893;-8.3368;-2.4491;0.9424;-0.9250;-4.5203;
5.2210;6.3732;0.1847;-1.5086;0.9424;-0.9250;-4.5203;
5.2880;6.3732;0.1847;-1.5086;0.9424;-0.9250;-4.5203;
5.2910;6.3732;0.1847;-1.5086;0.6806;-1.4660;-4.2934;
5.2920;0.6707;1.8353;-2.3008;0.6806;-1.4660;-4.2934;
5.2930;0.6707;1.8353;-2.3008;0.6806;-1.4660;-4.2934;
5.3480;0.6707;1.8353;-2.3008;0.6806;-1.4660;-4.2934;
5.3530;0.6707;1.8353;-2.3008;0.6806;-1.4660;-4.2934;
5.3540;0.6707;1.8353;-2.3008;-0.1396;-1.6057;0.3665;
5.3550;-1.4241;1.7688;1.0867;-0.1396;-1.6057;0.3665;
5.4250;-1.4241;1.7688;1.0867;-0.1396;-1.6057;0.3665;
5.4280;-1.4241;1.7688;1.0867;-0.1396;-0.9599;0.3665;
5.4450;0.6803;1.4301;1.7054;-0.1396;-0.9599;0.3665;
5.4460;0.6803;1.4301;1.7054;-0.1396;-0.9599;0.3665;
5.4800;0.6803;1.4301;1.7054;-0.1396;-0.9599;0.3665;
5.4850;0.6803;1.4301;1.7054;-0.1396;-0.9599;0.3665;
5.4860;0.6803;1.4301;1.7054;0.0000;0.2094;-0.1920;
5.4870;1.4022;0.8808;-2.3762;0.0000;0.2094;-0.1920;
5.5480;1.4022;0.8808;-2.3762;0.0000;0.2094;-0.1920;
5.5510;1.4022;0.8808;-2.3762;0.0000;0.2094;-0.1920;
5.5530;1.4022;0.8808;-2.3762;-0.0349;0.8901;-0.4014;
5.5540;0.5359;-0.7857;-0.8202;-0.0349;0.8901;-0.4014;
5.6120;0.5359;-0.7857;-0.8202;-0.0349;0.8901;-0.4014;
5.6170;0.5359;-0.7857;-0.8202;-0.0349;0.8901;-0.4014;
5.6180;0.5359;-0.7857;-0.8202;-0.2618;0.7854;-0.2269;
5.6190;0.3668;-2.5569;-0.3983;-0.2618;0.7854;-0.2269;
5.6800;0.3668;-2.5569;-0.3983;-0.2618;0.7854;-0.2269;
5.6830;0.3668;-2.5569;-0.3983;-0.2618;0.7854;-0.2269;
5.6840;0.3668;-2.5569;-0.3983;-0.6806;0.4538;1.5533;
5.6850;-1.7157;0.6534;-3.1165;-0.6806;0.4538;1.5533;
5.7440;-1.7157;0.6534;-3.1165;-0.6806;0.4538;1.5533;
5.7490;-1.7157;0.6534;-3.1165;-0.6806;0.4538;1.5533;
5.7500;-1.7157;0.6534;-3.1165;-1.0297;0.1222;4.3283;
5.7510;-5.5437;1.8414;6.5366;-1.0297;0.1222;4.3283;
5.8110;-5.5437;1.8414;6.5366;-1.0297;0.1222;4.3283;
5.8150;-5.5437;1.8414;6.5366;-1.0297;0.1222;4.3283;
5.8160;-5.5437;1.8414;6.5366;-1.0472;0.0698;4.3283;
5.8170;-2.1046;-1.4009;-1.9961;-1.0472;0.0698;4.3283;
5.8760;-2.1046;-1.4009;-1.9961;-1.0472;0.0698;4.3283;
5.8810;-2.1046;-1.4009;-1.9961;-1.0472;0.0698;4.3283;
5.8830;-2.1046;-1.4009;-1.9961;-0.9948;0.1920;4.2410;
5.8830;-0.8821;-9.7929;-3.8184;-0.9948;0.1920;4.2410;
5.9420;-0.8821;-9.7929;-3.8184;-0.9948;0.1920;4.2410;
5.9470;-0.8821;-9.7929;-3.8184;-0.9948;0.1920;4.2410;
5.9480;-0.8821;-9.7929;-3.8184;-0.5236;0.5759;-0.2792;
5.9490;0.6782;2.3021;0.5040;-0.5236;0.5759;-0.2792;
6.0080;0.6782;2.3021;0.5040;-0.5236;0.5759;-0.2792;
6.0120;0.6782;2.3021;0.5040;-0.5236;0.5759;-0.2792;
6.0130;0.6782;2.3021;0.5040;-0.3665;0.7156;-0.3665;
6.0140;-0.1444;1.3624;-2.4777;-0.3665;0.7156;-0.3665;
6.0740;-0.1444;1.3624;-2.4777;-0.3665;0.7156;-0.3665;
6.0790;-0.1444;1.3624;-2.4777;-0.3665;0.7156;-0.3665;
6.0800;-0.1444;1.3624;-2.4777;-0.1047;0.5934;-5.2184;
6.0810;5.9019;0.1095;-2.3699;-0.1047;0.5934;-5.2184;
6.1400;5.9019;0.1095;-2.3699;-0.1047;0.5934;-5.2184;
6.1450;5.9019;0.1095;-2.3699;-0.1047;0.5934;-5.2184;
6.1460;5.9019;0.1095;-2.3699;0.1745;0.4189;-5.2009;
6.1470;8.2267;1.5205;-2.5855;0.1745;0.4189;-5.2009;
6.2070;8.2267;1.5205;-2.5855;0.1745;0.4189;-5.2009;
6.2110;8.2267;1.5205;-2.5855;0.1745;0.4189;-5.2009;
6.2120;8.2267;1.5205;-2.5855;0.5061;0.6283;-5.1835;
6.2130;-5.3226;-0.8386;12.4316;0.5061;0.6283;-5.1835;
6.2720;-5.3226;-0.8386;12.4316;0.5061;0.6283;-5.1835;
6.2780;-5.3226;-0.8386;12.4316;0.5061;0.6283;-5.1835;
6.2790;-5.3226;-0.8386;12.4316;0.4189;0.6283;4.4854;
6.2800;-6.1591;4.3040;1.7457;0.4189;0.6283;4.4854;
6.3390;-6.1591;4.3040;1.7457;0.4189;0.6283;4.4854;
6.3430;-6.1591;4.3040;1.7457;0.4189;0.6283;4.4854;
6.3450;-6.1591;4.3040;1.7457;0.7679;0.3665;3.3684;
6.3460;-1.8277;-8.5959;2.9478;0.7679;0.3665;3.3684;
6.4050;-1.8277;-8.5959;2.9478;0.7679;0.3665;3.3684;
6.4090;-1.8277;-8.5959;2.9478;0.7679;0.3665;3.3684;
6.4110;-1.8277;-8.5959;2.9478;1.2042;-0.0524;1.0646;
6.4130;7.3097;0.5435;-5.5539;1.2042;-0.0524;1.0646;
6.4700;7.3097;0.5435;-5.5539;1.2042;-0.0524;1.0646;
6.4750;7.3097;0.5435;-5.5539;1.2042;-0.0524;1.0646;
6.4760;7.3097;0.5435;-5.5539;1.2391;-0.8552;-1.7976;
6.4770;0.8549;0.9014;-3.5854;1.2391;-0.8552;-1.7976;
6.5370;0.8549;0.9014;-3.5854;1.2391;-0.8552;-1.7976;
6.5420;0.8549;0.9014;-3.5854;1.2391;-0.8552;-1.7976;
6.5430;0.8549;0.9014;-3.5854;1.2740;-0.8377;-3.3858;
6.5440;-5.2598;1.4350;-0.6198;1.2740;-0.8377;-3.3858;
6.6020;-5.2598;1.4350;-0.6198;1.2740;-0.8377;-3.3858;
6.6070;-5.2598;1.4350;-0.6198;1.2740;-0.8377;-3.3858;
6.6080;-5.2598;1.4350;-0.6198;0.3840;-0.3490;-0.0698;
6.6090;-0.1019;2.0135;0.3390;0.3840;-0.3490;-0.0698;
6.6680;-0.1019;2.0135;0.3390;0.3840;-0.3490;-0.0698;
6.6730;-0.1019;2.0135;0.3390;0.3840;-0.3490;-0.0698;
6.6750;-0.1019;2.0135;0.3390;0.2792;0.9250;-0.2792;
6.6760;1.3828;0.7393;-0.8684;0.2792;0.9250;-0.2792;
6.7350;1.3828;0.7393;-0.8684;0.2792;0.9250;-0.2792;
6.7390;1.3828;0.7393;-0.8684;0.2792;0.9250;-0.2792;
6.7400;1.3828;0.7393;-0.8684;-0.2792;1.0821;0.9250;
6.7410;0.7823;-2.0017;-1.6040;-0.2792;1.0821;0.9250;
6.8000;0.7823;-2.0017;-1.6040;-0.2792;1.0821;0.9250;
6.8050;0.7823;-2.0017;-1.6040;-0.2792;1.0821;0.9250;
6.8050;0.7823;-2.0017;-1.6040;-1.3788;0.6458;4.2236;
6.8060;-1.5074;-0.6613;-1.1610;-1.3788;0.6458;4.2236;
6.8660;-1.5074;-0.6613;-1.1610;-1.3788;0.6458;4.2236;
6.8710;-1.5074;-0.6613;-1.1610;-1.3788;0.6458;4.2236;
6.8720;-1.5074;-0.6613;-1.1610;-1.5184;0.0174;4.2585;
6.8730;-3.1621;2.4139;0.4982;-1.5184;0.0174;4.2585;
6.9320;-3.1621;2.4139;0.4982;-1.5184;0.0174;4.2585;
6.9370;-3.1621;2.4139;0.4982;-1.5184;0.0174;4.2585;
6.9370;-3.1621;2.4139;0.4982;-1.0472;-0.2094;2.9321;
6.9380;-4.0588;-0.2873;0.2464;-1.0472;-0.2094;2.9321;
6.9980;-4.0588;-0.2873;0.2464;-1.0472;-0.2094;2.9321;
7.0070;-4.0588;-0.2873;0.2464;-1.0472;-0.2094;2.9321;
7.0080;-4.0588;-0.2873;0.2464;-0.1920;-0.1396;-0.2618;
7.0090;-5.1547;-9.4451;-4.6664;-0.1920;-0.1396;-0.2618;
7.0640;-5.1547;-9.4451;-4.6664;-0.1920;-0.1396;-0.2618;
7.0830;-5.1547;-9.4451;-4.6664;-0.1920;-0.1396;-0.2618;
7.0840;-5.1547;-9.4451;-4.6664;-0.1396;0.1047;-0.3490;
7.0850;4.1739;-4.9352;3.9238;-0.1396;0.1047;-0.3490;
7.1300;4.1739;-4.9352;3.9238;-0.1396;0.1047;-0.3490;
7.1370;4.1739;-4.9352;3.9238;-0.1396;0.1047;-0.3490;
7.1380;4.1739;-4.9352;3.9238;-0.0872;0.3490;-0.4712;
7.1390;-0.8967;3.9194;-0.8797;-0.0872;0.3490;-0.4712;
7.2140;-0.8967;3.9194;-0.8797;-0.0872;0.3490;-0.4712;
7.2150;-0.8967;3.9194;-0.8797;0.0349;0.4014;-0.4189;
7.2160;2.7665;1.6864;-2.5697;0.0349;0.4014;-0.4189;
7.2170;2.7665;1.6864;-2.5697;0.0349;0.4014;-0.4189;
7.2620;2.7665;1.6864;-2.5697;0.0349;0.4014;-0.4189;
7.2670;2.7665;1.6864;-2.5697;0.0349;0.4014;-0.4189;
7.2670;2.7665;1.6864;-2.5697;0.1920;0.1920;-0.1047;
7.2680;10.3906;2.2156;-4.3230;0.1920;0.1920;-0.1047;
7.3280;10.3906;2.2156;-4.3230;0.1920;0.1920;-0.1047;
7.3330;10.3906;2.2156;-4.3230;0.1920;0.1920;-0.1047;
7.3330;10.3906;2.2156;-4.3230;0.3490;-0.1571;0.2792;
7.3340;-0.1663;-1.2072;10.8862;0.3490;-0.1571;0.2792;
7.3940;-0.1663;-1.2072;10.8862;0.3490;-0.1571;0.2792;
7.3980;-0.1663;-1.2072;10.8862;0.3490;-0.1571;0.2792;
7.3990;-0.1663;-1.2072;10.8862;0.4363;-0.6632;0.5934;
7.4000;-7.6438;4.3088;0.0864;0.4363;-0.6632;0.5934;
7.4600;-7.6438;4.3088;0.0864;0.4363;-0.6632;0.5934;
7.4640;-7.6438;4.3088;0.0864;0.4363;-0.6632;0.5934;
7.4650;-7.6438;4.3088;0.0864;0.4712;-0.7505;0.6283;
7.4650;1.9302;-9.0800;-1.3557;0.4712;-0.7505;0.6283;
7.5260;1.9302;-9.0800;-1.3557;0.4712;-0.7505;0.6283;
7.5310;1.9302;-9.0800;-1.3557;0.4712;-0.7505;0.6283;
7.5310;1.9302;-9.0800;-1.3557;1.1693;-0.6981;-3.8221;
7.5320;10.4675;1.4454;-5.9743;1.1693;-0.6981;-3.8221;
7.5920;10.4675;1.4454;-5.9743;1.1693;-0.6981;-3.8221;
7.5960;10.4675;1.4454;-5.9743;1.1693;-0.6981;-3.8221;
7.5970;10.4675;1.4454;-5.9743;1.1344;-0.8901;-3.8396;
7.5970;0.0179;-3.6829;-5.5612;1.1344;-0.8901;-3.8396;
7.6580;0.0179;-3.6829;-5.5612;1.1344;-0.8901;-3.8396;
7.6620;0.0179;-3.6829;-5.5612;1.1344;-0.8901;-3.8396;
7.6630;0.0179;-3.6829;-5.5612;0.9599;-0.8028;-3.9443;
7.6630;-1.8643;3.5039;4.2385;0.9599;-0.8028;-3.9443;
7.7240;-1.8643;3.5039;4.2385;0.9599;-0.8028;-3.9443;
7.7280;-1.8643;3.5039;4.2385;0.9599;-0.8028;-3.9443;
7.7290;-1.8643;3.5039;4.2385;0.1571;-0.2792;-0.4189;
7.7290;0.6186;1.3386;-3.0994;0.1571;-0.2792;-0.4189;
7.7900;0.6186;1.3386;-3.0994;0.1571;-0.2792;-0.4189;
7.7940;0.6186;1.3386;-3.0994;0.1571;-0.2792;-0.4189;
7.7950;0.6186;1.3386;-3.0994;-0.2443;0.7330;0.8552;
7.7950;1.1592;0.7299;2.1334;-0.2443;0.7330;0.8552;
7.8560;1.1592;0.7299;2.1334;-0.2443;0.7330;0.8552;
7.8600;1.1592;0.7299;2.1334;-0.2443;0.7330;0.8552;
7.8610;1.1592;0.7299;2.1334;-0.9773;0.8552;3.4556;
7.8610;-1.5408;-0.4600;-2.1089;-0.9773;0.8552;3.4556;
7.9220;-1.5408;-0.4600;-2.1089;-0.9773;0.8552;3.4556;
7.9260;-1.5408;-0.4600;-2.1089;-0.9773;0.8552;3.4556;
7.9270;-1.5408;-0.4600;-2.1089;-1.1519;0.3490;3.6302;
7.9270;-2.3596;1.6736;-3.1684;-1.1519;0.3490;3.6302;
7.9880;-2.3596;1.6736;-3.1684;-1.1519;0.3490;3.6302;
7.9920;-2.3596;1.6736;-3.1684;-1.1519;0.3490;3.6302;
7.9930;-2.3596;1.6736;-3.1684;-0.9075;0.0349;2.3038;
7.9930;-2.4530;3.2489;-0.4935;-0.9075;0.0349;2.3038;
8.0540;-2.4530;3.2489;-0.4935;-0.9075;0.0349;2.3038;
8.0580;-2.4530;3.2489;-0.4935;-0.9075;0.0349;2.3038;
8.0590;-2.4530;3.2489;-0.4935;-0.3490;0.1920;-0.4712;
8.0590;-1.9372;-0.2347;-0.0428;-0.3490;0.1920;-0.4712;
8.1200;-1.9372;-0.2347;-0.0428;-0.3490;0.1920;-0.4712;
8.1240;-1.9372;-0.2347;-0.0428;-0.3490;0.1920;-0.4712;
8.1250;-1.9372;-0.2347;-0.0428;-0.3316;0.3840;-0.5934;
8.1250;-1.7029;-10.0372;5.8092;-0.3316;0.3840;-0.5934;
8.1860;-1.7029;-10.0372;5.8092;-0.3316;0.3840;-0.5934;
8.1900;-1.7029;-10.0372;5.8092;-0.3316;0.3840;-0.5934;
8.1910;-1.7029;-10.0372;5.8092;-0.3316;0.4887;-0.6981;
8.1910;3.5412;-0.1491;1.5424;-0.3316;0.4887;-0.6981;
8.2520;3.5412;-0.1491;1.5424;-0.3316;0.4887;-0.6981;
8.2560;3.5412;-0.1491;1.5424;-0.3316;0.4887;-0.6981;
8.2570;3.5412;-0.1491;1.5424;-0.2269;0.6108;-0.6632;
8.2570;-1.1108;4.8602;-1.4582;-0.2269;0.6108;-0.6632;
8.3180;-1.1108;4.8602;-1.4582;-0.2269;0.6108;-0.6632;
8.3220;-1.1108;4.8602;-1.4582;-0.2269;0.6108;-0.6632;
8.3230;-1.1108;4.8602;-1.4582;0.0174;0.5759;-3.5953;
8.3230;7.7510;2.6519;-3.2176;0.0174;0.5759;-3.5953;
8.3840;7.7510;2.6519;-3.2176;0.0174;0.5759;-3.5953;
8.3880;7.7510;2.6519;-3.2176;0.0174;0.5759;-3.5953;
8.3890;7.7510;2.6519;-3.2176;0.2618;0.4363;-5.1311;
8.3890;10.1983;2.8239;-4.8253;0.2618;0.4363;-5.1311;
8.4500;10.1983;2.8239;-4.8253;0.2618;0.4363;-5.1311;
8.4540;10.1983;2.8239;-4.8253;0.2618;0.4363;-5.1311;
8.4550;10.1983;2.8239;-4.8253;0.4887;0.5061;-5.1311;
8.4550;-10.5055;-4.5316;11.8900;0.4887;0.5061;-5.1311;
8.5160;-10.5055;-4.5316;11.8900;0.4887;0.5061;-5.1311;
8.5200;-10.5055;-4.5316;11.8900;0.4887;0.5061;-5.1311;
8.5210;-10.5055;-4.5316;11.8900;0.3316;0.5410;2.5481;
8.5210;0.7419;1.5434;-2.4100;0.3316;0.5410;2.5481;
8.5820;0.7419;1.5434;-2.4100;0.3316;0.5410;2.5481;
8.5860;0.7419;1.5434;-2.4100;0.3316;0.5410;2.5481;
8.5870;0.7419;1.5434;-2.4100;0.3141;0.3490;4.3108;
8.5870;6.2655;-8.1010;-0.3870;0.3141;0.3490;4.3108;
8.6480;6.2655;-8.1010;-0.3870;0.3141;0.3490;4.3108;
8.6520;6.2655;-8.1010;-0.3870;0.3141;0.3490;4.3108;
8.6530;6.2655;-8.1010;-0.3870;0.7679;0.0000;0.8726;
8.6530;7.4081;4.7096;-6.2372;0.7679;0.0000;0.8726;
8.7480;7.4081;4.7096;-6.2372;0.7679;0.0000;0.8726;
8.7490;7.4081;4.7096;-6.2372;1.0123;-0.5410;-3.7698;
8.7500;-3.8324;0.5098;-4.8788;1.0123;-0.5410;-3.7698;
8.7500;-3.8324;0.5098;-4.8788;1.0123;-0.5410;-3.7698;
8.7800;-3.8324;0.5098;-4.8788;1.0123;-0.5410;-3.7698;
8.7840;-3.8324;0.5098;-4.8788;1.0123;-0.5410;-3.7698;
8.7850;-3.8324;0.5098;-4.8788;1.0123;-0.1396;-3.7698;
8.7850;-1.3958;2.4090;5.6553;1.0123;-0.1396;-3.7698;
8.8460;-1.3958;2.4090;5.6553;1.0123;-0.1396;-3.7698;
8.8500;-1.3958;2.4090;5.6553;1.0123;-0.1396;-3.7698;
8.8510;-1.3958;2.4090;5.6553;0.3665;0.6806;-0.3316;
8.8510;1.9763;0.2500;-0.5269;0.3665;0.6806;-0.3316;
8.9120;1.9763;0.2500;-0.5269;0.3665;0.6806;-0.3316;
8.9160;1.9763;0.2500;-0.5269;0.3665;0.6806;-0.3316;
8.9170;1.9763;0.2500;-0.5269;-0.7156;1.0821;3.0542;
8.9170;0.7199;0.2315;-1.2595;-0.7156;1.0821;3.0542;
8.9780;0.7199;0.2315;-1.2595;-0.7156;1.0821;3.0542;
8.9820;0.7199;0.2315;-1.2595;-0.7156;1.0821;3.0542;
8.9830;0.7199;0.2315;-1.2595;-1.0297;0.6981;3.1240;
8.9830;0.1143;-0.7580;-1.0476;-1.0297;0.6981;3.1240;
9.0450;0.1143;-0.7580;-1.0476;-1.0297;0.6981;3.1240;
9.0490;0.1143;-0.7580;-1.0476;-1.0297;0.6981;3.1240;
9.0490;0.1143;-0.7580;-1.0476;-1.1170;-0.0349;3.1938;
9.0500;-0.6125;0.5262;1.0828;-1.1170;-0.0349;3.1938;
9.1100;-0.6125;0.5262;1.0828;-1.1170;-0.0349;3.1938;
9.1180;-0.6125;0.5262;1.0828;-1.1170;-0.0349;3.1938;
9.1190;-0.6125;0.5262;1.0828;-0.2094;-0.0698;-0.3490;
9.1190;-3.0968;2.3362;-1.3534;-0.2094;-0.0698;-0.3490;
9.1760;-3.0968;2.3362;-1.3534;-0.2094;-0.0698;-0.3490;
9.1830;-3.0968;2.3362;-1.3534;-0.2094;-0.0698;-0.3490;
9.1830;-3.0968;2.3362;-1.3534;-0.1396;0.0000;-0.3316;
9.1840;-5.7985;-0.2458;2.7522;-0.1396;0.0000;-0.3316;
9.2420;-5.7985;-0.2458;2.7522;-0.1396;0.0000;-0.3316;
9.2470;-5.7985;-0.2458;2.7522;-0.1396;0.0000;-0.3316;
9.2480;-5.7985;-0.2458;2.7522;-0.1571;0.0524;-0.3490;
9.2490;-0.6004;-9.3651;-2.4271;-0.1571;0.0524;-0.3490;
9.3140;-0.6004;-9.3651;-2.4271;-0.1571;0.0524;-0.3490;
9.3150;-0.6004;-9.3651;-2.4271;-0.1571;0.0524;-0.3490;
9.3160;-0.6004;-9.3651;-2.4271;-0.1571;0.2269;-0.4887;
9.3170;4.7394;-1.3189;0.1025;-0.1571;0.2269;-0.4887;
9.3920;4.7394;-1.3189;0.1025;-0.1571;0.2269;-0.4887;
9.3930;4.7394;-1.3189;0.1025;-0.1571;0.2269;-0.4887;
9.3950;4.7394;-1.3189;0.1025;-0.0872;0.4189;-0.5585;
9.3960;-1.8047;3.1773;-1.4621;-0.0872;0.4189;-0.5585;
9.4400;-1.8047;3.1773;-1.4621;-0.0872;0.4189;-0.5585;
9.4450;-1.8047;3.1773;-1.4621;-0.0872;0.4189;-0.5585;
9.4460;-1.8047;3.1773;-1.4621;0.0349;0.4189;-0.4189;
9.4470;4.1852;2.0541;-1.5540;0.0349;0.4189;-0.4189;
9.5130;4.1852;2.0541;-1.5540;0.0349;0.4189;-0.4189;
9.5140;4.1852;2.0541;-1.5540;0.2443;0.1920;-0.0174;
9.5150;8.6832;2.6129;-3.8755;0.2443;0.1920;-0.0174;
9.5170;8.6832;2.6129;-3.8755;0.2443;0.1920;-0.0174;
9.5720;8.6832;2.6129;-3.8755;0.2443;0.1920;-0.0174;
9.5770;8.6832;2.6129;-3.8755;0.2443;0.1920;-0.0174;
9.5780;8.6832;2.6129;-3.8755;0.3840;-0.1745;0.3665;
9.5790;-3.2486;-1.7415;14.4902;0.3840;-0.1745;0.3665;
9.6420;-3.2486;-1.7415;14.4902;0.3840;-0.1745;0.3665;
9.6450;-3.2486;-1.7415;14.4902;0.3840;-0.1745;0.3665;
9.6460;-3.2486;-1.7415;14.4902;0.4189;-0.6108;0.6108;
9.6480;-9.1105;3.4397;5.0952;0.4189;-0.6108;0.6108;
9.7050;-9.1105;3.4397;5.0952;0.4189;-0.6108;0.6108;
9.7090;-9.1105;3.4397;5.0952;0.4189;-0.6108;0.6108;
9.7100;-9.1105;3.4397;5.0952;0.3316;-0.8377;0.6632;
9.7110;2.1166;-7.6405;10.5948;0.3316;-0.8377;0.6632;
9.7700;2.1166;-7.6405;10.5948;0.3316;-0.8377;0.6632;
9.7750;2.1166;-7.6405;10.5948;0.3316;-0.8377;0.6632;
9.7760;2.1166;-7.6405;10.5948;0.6108;-0.6283;-0.6981;
9.7770;6.3186;0.1119;-6.8220;0.6108;-0.6283;-0.6981;
9.8370;6.3186;0.1119;-6.8220;0.6108;-0.6283;-0.6981;
9.8410;6.3186;0.1119;-6.8220;0.6108;-0.6283;-0.6981;
9.8420;6.3186;0.1119;-6.8220;1.1170;-0.4887;-3.1938;
9.8440;0.1168;2.1366;-2.3901;1.1170;-0.4887;-3.1938;
9.9020;0.1168;2.1366;-2.3901;1.1170;-0.4887;-3.1938;
9.9070;0.1168;2.1366;-2.3901;1.1170;-0.4887;-3.1938;
9.9080;0.1168;2.1366;-2.3901;1.0995;-0.4363;-3.3858;
9.9090;-4.4483;0.7964;-2.4424;1.0995;-0.4363;-3.3858;
9.9680;-4.4483;0.7964;-2.4424;1.0995;-0.4363;-3.3858;
9.9730;-4.4483;0.7964;-2.4424;1.0995;-0.4363;-3.3858;
9.9740;-4.4483;0.7964;-2.4424;0.9948;-0.2618;-3.4906;
9.9750;-0.3330;2.1307;3.5611;0.9948;-0.2618;-3.4906;
10.0360;-0.3330;2.1307;3.5611;0.9948;-0.2618;-3.4906;
10.0390;-0.3330;2.1307;3.5611;0.9948;-0.2618;-3.4906;
10.0400;-0.3330;2.1307;3.5611;-0.0349;0.0349;-0.2618;
10.0420;1.5372;0.9546;1.4352;-0.0349;0.0349;-0.2618;
10.1000;1.5372;0.9546;1.4352;-0.0349;0.0349;-0.2618;
10.1050;1.5372;0.9546;1.4352;-0.0349;0.0349;-0.2618;
10.1060;1.5372;0.9546;1.4352;-1.1344;0.4538;2.8099;
10.1070;-0.1806;-0.9238;-2.4080;-1.1344;0.4538;2.8099;
10.1660;-0.1806;-0.9238;-2.4080;-1.1344;0.4538;2.8099;
10.1710;-0.1806;-0.9238;-2.4080;-1.1344;0.4538;2.8099;
10.1720;-0.1806;-0.9238;-2.4080;-1.2566;0.3840;2.8448;
10.1730;-0.7768;-0.7262;-0.6110;-1.2566;0.3840;2.8448;
10.2320;-0.7768;-0.7262;-0.6110;-1.2566;0.3840;2.8448;
10.2370;-0.7768;-0.7262;-0.6110;-1.2566;0.3840;2.8448;
10.2390;-0.7768;-0.7262;-0.6110;-1.2391;0.2443;2.8797;
10.2410;-2.1406;2.0563;-1.8098;-1.2391;0.2443;2.8797;
10.2980;-2.1406;2.0563;-1.8098;-1.2391;0.2443;2.8797;
10.3030;-2.1406;2.0563;-1.8098;-1.2391;0.2443;2.8797;
10.3040;-2.1406;2.0563;-1.8098;-0.3490;0.2443;-0.3490;
10.3060;-5.5221;0.8239;8.9135;-0.3490;0.2443;-0.3490;
10.3650;-5.5221;0.8239;8.9135;-0.3490;0.2443;-0.3490;
10.3690;-5.5221;0.8239;8.9135;-0.3490;0.2443;-0.3490;
10.3700;-5.5221;0.8239;8.9135;-0.2967;0.1745;-0.3490;
10.3710;-2.8761;-7.0047;-3.4568;-0.2967;0.1745;-0.3490;
10.4310;-2.8761;-7.0047;-3.4568;-0.2967;0.1745;-0.3490;
10.4360;-2.8761;-7.0047;-3.4568;-0.2967;0.1745;-0.3490;
10.4380;-2.8761;-7.0047;-3.4568;-0.2967;0.1745;-0.3490;
10.4410;3.2071;-7.1633;7.3437;-0.2967;0.1745;-0.3490;
10.4960;3.2071;-7.1633;7.3437;-0.2967;0.1745;-0.3490;
10.5010;3.2071;-7.1633;7.3437;-0.2967;0.1745;-0.3490;
10.5020;3.2071;-7.1633;7.3437;-0.2269;0.3840;-0.4014;
10.5030;-0.3266;2.8937;-0.7441;-0.2269;0.3840;-0.4014;
10.5710;-0.3266;2.8937;-0.7441;-0.2269;0.3840;-0.4014;
10.5720;-0.3266;2.8937;-0.7441;-0.2269;0.3840;-0.4014;
10.5730;-0.3266;2.8937;-0.7441;-0.1047;0.5759;-0.4189;
10.5750;3.1834;2.3833;-4.0401;-0.1047;0.5759;-0.4189;
10.6300;3.1834;2.3833;-4.0401;-0.1047;0.5759;-0.4189;
10.6330;3.1834;2.3833;-4.0401;-0.1047;0.5759;-0.4189;
10.6340;3.1834;2.3833;-4.0401;0.0349;0.5061;-4.4854;
10.6350;7.7252;2.8877;-2.5194;0.0349;0.5061;-4.4854;
10.6940;7.7252;2.8877;-2.5194;0.0349;0.5061;-4.4854;
10.6990;7.7252;2.8877;-2.5194;0.0349;0.5061;-4.4854;
10.7000;7.7252;2.8877;-2.5194;0.2967;0.4887;-4.5028;
10.7010;2.0597;-0.0564;7.4823;0.2967;0.4887;-4.5028;
10.7600;2.0597;-0.0564;7.4823;0.2967;0.4887;-4.5028;
10.7650;2.0597;-0.0564;7.4823;0.2967;0.4887;-4.5028;
10.7660;2.0597;-0.0564;7.4823;0.6458;0.9599;-4.5901;
10.7670;-6.7942;3.3839;5.7431;0.6458;0.9599;-4.5901;
10.8260;-6.7942;3.3839;5.7431;0.6458;0.9599;-4.5901;
10.8310;-6.7942;3.3839;5.7431;0.6458;0.9599;-4.5901;
10.8320;-6.7942;3.3839;5.7431;0.9075;1.6231;-0.6981;
10.8330;0.3951;-2.4163;-1.4411;0.9075;1.6231;-0.6981;
10.8920;0.3951;-2.4163;-1.4411;0.9075;1.6231;-0.6981;
10.8970;0.3951;-2.4163;-1.4411;0.9075;1.6231;-0.6981;
10.8970;0.3951;-2.4163;-1.4411;0.9424;1.6231;-0.5585;
10.8980;8.2783;-4.9228;-5.6234;0.9424;1.6231;-0.5585;
10.9580;8.2783;-4.9228;-5.6234;0.9424;1.6231;-0.5585;
10.9620;8.2783;-4.9228;-5.6234;0.9424;1.6231;-0.5585;
10.9630;8.2783;-4.9228;-5.6234;0.7156;0.5759;-0.1047;
10.9640;2.7497;4.0959;-3.9165;0.7156;0.5759;-0.1047;
11.0240;2.7497;4.0959;-3.9165;0.7156;0.5759;-0.1047;
11.0290;2.7497;4.0959;-3.9165;0.7156;0.5759;-0.1047;
11.0300;2.7497;4.0959;-3.9165;0.3665;-0.4712;0.3316;
11.0310;-1.3308;-0.8336;-2.1171;0.3665;-0.4712;0.3316;
11.0910;-1.3308;-0.8336;-2.1171;0.3665;-0.4712;0.3316;
11.0950;-1.3308;-0.8336;-2.1171;0.3665;-0.4712;0.3316;
11.0970;-1.3308;-0.8336;-2.1171;0.1745;-0.2094;0.1920;
11.0980;-0.5263;2.4363;5.6644;0.1745;-0.2094;0.1920;
11.1560;-0.5263;2.4363;5.6644;0.1745;-0.2094;0.1920;
11.1610;-0.5263;2.4363;5.6644;0.1745;-0.2094;0.1920;
11.1620;-0.5263;2.4363;5.6644;0.1571;0.9599;-0.0872;
11.1840;0.1814;1.3442;0.3707;0.1571;0.9599;-0.0872;
11.2220;0.1814;1.3442;0.3707;0.1571;0.9599;-0.0872;
11.2330;0.1814;1.3442;0.3707;0.1571;0.9599;-0.0872;
11.2350;0.1814;1.3442;0.3707;-0.3840;1.3439;1.7104;
11.2360;0.2084;1.1597;-1.4559;-0.3840;1.3439;1.7104;
11.2890;0.2084;1.1597;-1.4559;-0.3840;1.3439;1.7104;
11.3200;0.2084;1.1597;-1.4559;-0.3840;1.3439;1.7104;
11.3210;0.2084;1.1597;-1.4559;-0.8901;1.0472;3.1066;
11.3220;-0.9740;-1.5472;-1.6637;-0.8901;1.0472;3.1066;
11.3540;-0.9740;-1.5472;-1.6637;-0.8901;1.0472;3.1066;
11.3600;-0.9740;-1.5472;-1.6637;-0.8901;1.0472;3.1066;
11.3610;-0.9740;-1.5472;-1.6637;-1.0123;0.4363;3.1764;
11.3620;-1.9059;-0.2143;-0.7433;-1.0123;0.4363;3.1764;
11.4440;-1.9059;-0.2143;-0.7433;-1.0123;0.4363;3.1764;
11.4450;-1.9059;-0.2143;-0.7433;-0.5236;0.1920;0.9250;
11.4470;-6.5435;0.5335;2.3691;-0.5236;0.1920;0.9250;
11.4480;-6.5435;0.5335;2.3691;-0.5236;0.1920;0.9250;
11.4910;-6.5435;0.5335;2.3691;-0.5236;0.1920;0.9250;
11.4920;-6.5435;0.5335;2.3691;-0.5236;0.1920;0.9250;
11.4930;-6.5435;0.5335;2.3691;-0.1920;0.2094;-0.4363;
11.4940;-2.8432;-3.7090;-2.5666;-0.1920;0.2094;-0.4363;
11.5580;-2.8432;-3.7090;-2.5666;-0.1920;0.2094;-0.4363;
11.5730;-2.8432;-3.7090;-2.5666;-0.1920;0.2618;-0.4887;
11.5740;0.3505;-8.9904;-0.4254;-0.1920;0.2618;-0.4887;
11.5750;0.3505;-8.9904;-0.4254;-0.1920;0.2618;-0.4887;
11.6180;0.3505;-8.9904;-0.4254;-0.1920;0.2618;-0.4887;
11.6230;0.3505;-8.9904;-0.4254;-0.1920;0.2618;-0.4887;
11.6240;0.3505;-8.9904;-0.4254;-0.0698;0.3665;-2.1641;
11.6240;0.3192;3.5663;0.1137;-0.0698;0.3665;-2.1641;
11.6900;0.3192;3.5663;0.1137;-0.0698;0.3665;-2.1641;
11.6910;0.3192;3.5663;0.1137;-0.0698;0.3665;-2.1641;
11.6920;0.3192;3.5663;0.1137;0.1745;0.3840;-5.6721;
11.6930;3.9425;2.2227;-3.6994;0.1745;0.3840;-5.6721;
11.7510;3.9425;2.2227;-3.6994;0.1745;0.3840;-5.6721;
11.7550;3.9425;2.2227;-3.6994;0.1745;0.3840;-5.6721;
11.7560;3.9425;2.2227;-3.6994;0.2967;0.3490;-4.1014;
11.7580;9.0633;1.7245;-2.5935;0.2967;0.3490;-4.1014;
11.8200;9.0633;1.7245;-2.5935;0.2967;0.3490;-4.1014;
11.8220;9.0633;1.7245;-2.5935;0.2967;0.3490;-4.1014;
11.8300;9.0633;1.7245;-2.5935;0.2967;0.2094;-0.7854;
11.8310;8.2053;1.8496;-2.1433;0.2967;0.2094;-0.7854;
11.8820;8.2053;1.8496;-2.1433;0.2967;0.2094;-0.7854;
11.8870;8.2053;1.8496;-2.1433;0.2967;0.2094;-0.7854;
11.8880;8.2053;1.8496;-2.1433;0.2094;-0.2443;4.8344;
11.8890;-13.3043;1.6884;5.6475;0.2094;-0.2443;4.8344;
11.9500;-13.3043;1.6884;5.6475;0.2094;-0.2443;4.8344;
11.9540;-13.3043;1.6884;5.6475;0.2094;-0.2443;4.8344;
11.9550;-13.3043;1.6884;5.6475;0.2443;-0.9599;3.8920;
11.9580;0.6908;-5.0100;-1.4466;0.2443;-0.9599;3.8920;
12.0140;0.6908;-5.0100;-1.4466;0.2443;-0.9599;3.8920;
12.0190;0.6908;-5.0100;-1.4466;0.2443;-0.9599;3.8920;
12.0200;0.6908;-5.0100;-1.4466;0.4014;-0.8726;0.8203;
12.0220;7.7866;-4.5000;-5.8713;0.4014;-0.8726;0.8203;
12.0810;7.7866;-4.5000;-5.8713;0.4014;-0.8726;0.8203;
12.0860;7.7866;-4.5000;-5.8713;0.4014;-0.8726;0.8203;
12.0870;7.7866;-4.5000;-5.8713;1.0472;-0.5410;-3.1590;
12.0890;1.1876;2.4232;-1.8583;1.0472;-0.5410;-3.1590;
12.1460;1.1876;2.4232;-1.8583;1.0472;-0.5410;-3.1590;
12.1510;1.1876;2.4232;-1.8583;1.0472;-0.5410;-3.1590;
12.1520;1.1876;2.4232;-1.8583;1.0297;-0.4014;-3.4207;
12.1530;-1.9720;-0.1190;-6.7638;1.0297;-0.4014;-3.4207;
12.2120;-1.9720;-0.1190;-6.7638;1.0297;-0.4014;-3.4207;
12.2170;-1.9720;-0.1190;-6.7638;1.0297;-0.4014;-3.4207;
12.2180;-1.9720;-0.1190;-6.7638;0.9424;-0.1047;-3.7000;
12.2190;-0.9779;2.3977;5.3215;0.9424;-0.1047;-3.7000;
12.2790;-0.9779;2.3977;5.3215;0.9424;-0.1047;-3.7000;
12.2830;-0.9779;2.3977;5.3215;0.9424;-0.1047;-3.7000;
12.2840;-0.9779;2.3977;5.3215;0.0000;0.2269;-0.2967;
12.2850;0.5442;1.4314;0.0738;0.0000;0.2269;-0.2967;
12.3450;0.5442;1.4314;0.0738;0.0000;0.2269;-0.2967;
12.3500;0.5442;1.4314;0.0738;0.0000;0.2269;-0.2967;
12.3510;0.5442;1.4314;0.0738;-0.8377;0.4887;2.8448;
12.3520;0.5192;1.1376;-0.4689;-0.8377;0.4887;2.8448;
12.4100;0.5192;1.1376;-0.4689;-0.8377;0.4887;2.8448;
12.4150;0.5192;1.1376;-0.4689;-0.8377;0.4887;2.8448;
12.4160;0.5192;1.1376;-0.4689;-1.0123;0.4712;2.8448;
12.4160;-0.0578;-1.4334;-1.1722;-1.0123;0.4712;2.8448;
12.4760;-0.0578;-1.4334;-1.1722;-1.0123;0.4712;2.8448;
12.4810;-0.0578;-1.4334;-1.1722;-1.0123;0.4712;2.8448;
12.4820;-0.0578;-1.4334;-1.1722;-1.0472;0.2967;2.8448;
12.4830;-0.7396;-0.1749;0.2792;-1.0472;0.2967;2.8448;
12.5430;-0.7396;-0.1749;0.2792;-1.0472;0.2967;2.8448;
12.5470;-0.7396;-0.1749;0.2792;-1.0472;0.2967;2.8448;
12.5480;-0.7396;-0.1749;0.2792;-0.3316;0.3665;-0.4712;
12.5490;-5.4782;1.1565;4.8837;-0.3316;0.3665;-0.4712;
12.6090;-5.4782;1.1565;4.8837;-0.3316;0.3665;-0.4712;
12.6130;-5.4782;1.1565;4.8837;-0.3316;0.3665;-0.4712;
12.6150;-5.4782;1.1565;4.8837;-0.2792;0.3316;-0.4189;
12.6160;-2.8467;-0.9719;-0.7596;-0.2792;0.3316;-0.4189;
12.6740;-2.8467;-0.9719;-0.7596;-0.2792;0.3316;-0.4189;
12.6800;-2.8467;-0.9719;-0.7596;-0.2792;0.3316;-0.4189;
12.6810;-2.8467;-0.9719;-0.7596;-0.2443;0.3665;-0.3665;
12.6820;-1.4235;-9.1300;-2.9607;-0.2443;0.3665;-0.3665;
12.7400;-1.4235;-9.1300;-2.9607;-0.2443;0.3665;-0.3665;
12.7450;-1.4235;-9.1300;-2.9607;-0.2443;0.3665;-0.3665;
12.7450;-1.4235;-9.1300;-2.9607;-0.2094;0.5236;-0.4189;
12.7460;2.7970;1.0799;0.1182;-0.2094;0.5236;-0.4189;
12.8090;2.7970;1.0799;0.1182;-0.2094;0.5236;-0.4189;
12.8110;2.7970;1.0799;0.1182;-0.2094;0.5236;-0.4189;
12.8120;2.7970;1.0799;0.1182;-0.1571;0.5934;-0.4363;
12.8130;0.9092;3.2371;-2.2224;-0.1571;0.5934;-0.4363;
12.8730;0.9092;3.2371;-2.2224;-0.1571;0.5934;-0.4363;
12.8770;0.9092;3.2371;-2.2224;-0.1571;0.5934;-0.4363;
12.8770;0.9092;3.2371;-2.2224;0.0698;0.4538;-4.7995;
12.8780;6.3420;2.9175;-1.8873;0.0698;0.4538;-4.7995;
12.9380;6.3420;2.9175;-1.8873;0.0698;0.4538;-4.7995;
12.9420;6.3420;2.9175;-1.8873;0.0698;0.4538;-4.7995;
12.9430;6.3420;2.9175;-1.8873;0.3141;0.4363;-4.7821;
12.9440;6.1698;1.5732;-2.6667;0.3141;0.4363;-4.7821;
13.0070;6.1698;1.5732;-2.6667;0.3141;0.4363;-4.7821;
13.0080;6.1698;1.5732;-2.6667;0.3141;0.4363;-4.7821;
13.0090;6.1698;1.5732;-2.6667;0.2967;0.2967;-0.0698;
13.0100;-12.7564;-0.4504;-1.4079;0.2967;0.2967;-0.0698;
13.0700;-12.7564;-0.4504;-1.4079;0.2967;0.2967;-0.0698;
13.0740;-12.7564;-0.4504;-1.4079;0.2967;0.2967;-0.0698;
13.0750;-12.7564;-0.4504;-1.4079;0.2443;-0.2269;4.8344;
13.0760;1.8941;-1.3095;-2.0847;0.2443;-0.2269;4.8344;
13.1360;1.8941;-1.3095;-2.0847;0.2443;-0.2269;4.8344;
13.1410;1.8941;-1.3095;-2.0847;0.2443;-0.2269;4.8344;
13.1420;1.8941;-1.3095;-2.0847;0.1571;-0.5410;4.9740;
13.1430;9.0812;-8.1925;-0.6583;0.1571;-0.5410;4.9740;
13.2020;9.0812;-8.1925;-0.6583;0.1571;-0.5410;4.9740;
13.2070;9.0812;-8.1925;-0.6583;0.1571;-0.5410;4.9740;
13.2080;9.0812;-8.1925;-0.6583;0.6458;-0.5236;-1.7453;
13.2090;6.4292;3.4528;-4.9170;0.6458;-0.5236;-1.7453;
13.2680;6.4292;3.4528;-4.9170;0.6458;-0.5236;-1.7453;
13.2730;6.4292;3.4528;-4.9170;0.6458;-0.5236;-1.7453;
13.2740;6.4292;3.4528;-4.9170;0.8726;-0.3316;-3.1764;
13.2750;-0.7275;-1.1491;-1.5393;0.8726;-0.3316;-3.1764;
13.3360;-0.7275;-1.1491;-1.5393;0.8726;-0.3316;-3.1764;
13.3620;-0.7275;-1.1491;-1.5393;0.8726;-0.3316;-3.1764;
13.3640;-0.7275;-1.1491;-1.5393;0.9250;0.0698;-3.5778;
13.3650;-4.0409;1.8615;3.0114;0.9250;0.0698;-3.5778;
13.4000;-4.0409;1.8615;3.0114;0.9250;0.0698;-3.5778;
13.4100;-4.0409;1.8615;3.0114;0.9250;0.0698;-3.5778;
13.4120;-4.0409;1.8615;3.0114;0.6981;0.4887;-2.7226;
13.4130;-0.8048;1.1330;-0.0351;0.6981;0.4887;-2.7226;
13.4660;-0.8048;1.1330;-0.0351;0.6981;0.4887;-2.7226;
13.4920;-0.8048;1.1330;-0.0351;0.6981;0.4887;-2.7226;
13.4940;-0.8048;1.1330;-0.0351;-0.4712;0.5934;2.6354;
13.4950;0.6893;1.4411;0.7065;-0.4712;0.5934;2.6354;
13.5370;0.6893;1.4411;0.7065;-0.4712;0.5934;2.6354;
13.5380;0.6893;1.4411;0.7065;-0.7330;0.5061;2.6528;
13.5390;-0.9619;0.4379;-0.6647;-0.7330;0.5061;2.6528;
13.5410;-0.9619;0.4379;-0.6647;-0.7330;0.5061;2.6528;
13.6130;-0.9619;0.4379;-0.6647;-0.7330;0.5061;2.6528;
13.6140;-0.9619;0.4379;-0.6647;-0.8901;0.0524;2.6703;
13.6150;-0.0809;-1.1252;-0.2705;-0.8901;0.0524;2.6703;
13.6160;-0.0809;-1.1252;-0.2705;-0.8901;0.0524;2.6703;
13.6670;-0.0809;-1.1252;-0.2705;-0.8901;0.0524;2.6703;
13.6690;-0.0809;-1.1252;-0.2705;-0.8901;0.0524;2.6703;
13.6700;-0.0809;-1.1252;-0.2705;-0.2618;0.1047;-0.5585;
13.6710;-1.4959;1.9111;-1.1467;-0.2618;0.1047;-0.5585;
13.7330;-1.4959;1.9111;-1.1467;-0.2618;0.1047;-0.5585;
13.7350;-1.4959;1.9111;-1.1467;-0.2618;0.1047;-0.5585;
13.7360;-1.4959;1.9111;-1.1467;-0.1571;0.3840;-0.6283;
13.7390;-4.2347;1.0847;5.6874;-0.1571;0.3840;-0.6283;
13.7960;-4.2347;1.0847;5.6874;-0.1571;0.3840;-0.6283;
13.8010;-4.2347;1.0847;5.6874;-0.1571;0.3840;-0.6283;
13.8010;-4.2347;1.0847;5.6874;-0.1047;0.3316;-0.5236;
13.8020;-2.0589;-9.0914;-2.2164;-0.1047;0.3316;-0.5236;
13.8650;-2.0589;-9.0914;-2.2164;-0.1047;0.3316;-0.5236;
13.8710;-2.0589;-9.0914;-2.2164;-0.1047;0.3316;-0.5236;
13.8720;-2.0589;-9.0914;-2.2164;-0.1047;0.3316;-0.4712;
13.8810;2.6717;0.5719;0.6148;-0.1047;0.3316;-0.4712;
13.9280;2.6717;0.5719;0.6148;-0.1047;0.3316;-0.4712;
13.9330;2.6717;0.5719;0.6148;-0.1047;0.3316;-0.4712;
13.9340;2.6717;0.5719;0.6148;-0.0698;0.3840;-0.4363;
13.9420;-0.3840;2.4609;-0.8646;-0.0698;0.3840;-0.4363;
13.9950;-0.3840;2.4609;-0.8646;-0.0698;0.3840;-0.4363;
13.9990;-0.3840;2.4609;-0.8646;-0.0698;0.3840;-0.4363;
14.0000;-0.3840;2.4609;-0.8646;0.0524;0.3665;-0.2094;
14.0020;6.6229;2.6175;-1.9458;0.0524;0.3665;-0.2094;
14.0610;6.6229;2.6175;-1.9458;0.0524;0.3665;-0.2094;
14.0650;6.6229;2.6175;-1.9458;0.0524;0.3665;-0.2094;
14.0660;6.6229;2.6175;-1.9458;0.1745;0.1222;0.0524;
14.0670;8.5408;0.8719;-1.5275;0.1745;0.1222;0.0524;
14.1270;8.5408;0.8719;-1.5275;0.1745;0.1222;0.0524;
14.1330;8.5408;0.8719;-1.5275;0.1745;0.1222;0.0524;
14.1340;8.5408;0.8719;-1.5275;0.2443;-0.2443;0.3490;
14.1350;-12.6847;-1.1817;4.0033;0.2443;-0.2443;0.3490;
14.1920;-12.6847;-1.1817;4.0033;0.2443;-0.2443;0.3490;
14.1970;-12.6847;-1.1817;4.0033;0.2443;-0.2443;0.3490;
14.1980;-12.6847;-1.1817;4.0033;0.2269;-0.6458;0.5934;
14.1990;-1.3272;4.5882;-0.5262;0.2269;-0.6458;0.5934;
14.2590;-1.3272;4.5882;-0.5262;0.2269;-0.6458;0.5934;
14.2670;-1.3272;4.5882;-0.5262;0.2269;-0.6458;0.5934;
14.2680;-1.3272;4.5882;-0.5262;0.1920;-0.7505;0.6981;
14.2700;5.9395;-9.1447;6.7732;0.1920;-0.7505;0.6981;
14.3240;5.9395;-9.1447;6.7732;0.1920;-0.7505;0.6981;
14.3290;5.9395;-9.1447;6.7732;0.1920;-0.7505;0.6981;
14.3300;5.9395;-9.1447;6.7732;0.3316;-0.5236;-0.3141;
14.3310;5.2744;4.9386;-4.4336;0.3316;-0.5236;-0.3141;
14.3910;5.2744;4.9386;-4.4336;0.3316;-0.5236;-0.3141;
14.3950;5.2744;4.9386;-4.4336;0.3316;-0.5236;-0.3141;
14.3970;5.2744;4.9386;-4.4336;0.6632;-0.3840;-2.7924;
14.3980;-0.4952;-0.3062;-2.5064;0.6632;-0.3840;-2.7924;
14.4570;-0.4952;-0.3062;-2.5064;0.6632;-0.3840;-2.7924;
14.4620;-0.4952;-0.3062;-2.5064;0.6632;-0.3840;-2.7924;
14.4640;-0.4952;-0.3062;-2.5064;0.6283;-0.2792;-3.0368;
14.4650;-1.5954;0.9575;-3.3387;0.6283;-0.2792;-3.0368;
14.5230;-1.5954;0.9575;-3.3387;0.6283;-0.2792;-3.0368;
14.5270;-1.5954;0.9575;-3.3387;0.6283;-0.2792;-3.0368;
14.5280;-1.5954;0.9575;-3.3387;0.3665;-0.0698;-2.3561;
14.5290;1.0298;0.9362;1.5281;0.3665;-0.0698;-2.3561;
14.5880;1.0298;0.9362;1.5281;0.3665;-0.0698;-2.3561;
14.5930;1.0298;0.9362;1.5281;0.3665;-0.0698;-2.3561;
14.5940;1.0298;0.9362;1.5281;-0.5236;0.2094;2.2514;
14.5950;1.1863;1.4741;-1.3790;-0.5236;0.2094;2.2514;
14.6540;1.1863;1.4741;-1.3790;-0.5236;0.2094;2.2514;
14.6590;1.1863;1.4741;-1.3790;-0.5236;0.2094;2.2514;
14.6600;1.1863;1.4741;-1.3790;-0.8377;0.3490;3.3335;
14.6610;0.0003;-1.3326;-2.0862;-0.8377;0.3490;3.3335;
14.7200;0.0003;-1.3326;-2.0862;-0.8377;0.3490;3.3335;
14.7250;0.0003;-1.3326;-2.0862;-0.8377;0.3490;3.3335;
14.7260;0.0003;-1.3326;-2.0862;-0.8552;0.2792;3.3509;
14.7270;-0.1422;-1.6538;-0.5999;-0.8552;0.2792;3.3509;
14.7860;-0.1422;-1.6538;-0.5999;-0.8552;0.2792;3.3509;
14.7910;-0.1422;-1.6538;-0.5999;-0.8552;0.2792;3.3509;
14.7920;-0.1422;-1.6538;-0.5999;-0.6108;0.1920;2.2165;
14.7930;-4.5334;1.4761;-0.6283;-0.6108;0.1920;2.2165;
14.8520;-4.5334;1.4761;-0.6283;-0.6108;0.1920;2.2165;
14.8600;-4.5334;1.4761;-0.6283;-0.6108;0.1920;2.2165;
14.8670;-4.5334;1.4761;-0.6283;-0.1571;0.2094;-0.1745;
14.8690;-4.1122;0.7157;2.7610;-0.1571;0.2094;-0.1745;
14.9180;-4.1122;0.7157;2.7610;-0.1571;0.2094;-0.1745;
14.9230;-4.1122;0.7157;2.7610;-0.1571;0.2094;-0.1745;
14.9240;-4.1122;0.7157;2.7610;-0.1571;0.2094;-0.1920;
14.9250;-2.1279;-8.7752;-4.5379;-0.1571;0.2094;-0.1920;
14.9840;-2.1279;-8.7752;-4.5379;-0.1571;0.2094;-0.1920;
14.9910;-2.1279;-8.7752;-4.5379;-0.1571;0.2094;-0.1920;
14.9920;-2.1279;-8.7752;-4.5379;-0.1920;0.4189;-0.3665;
14.9930;3.4169;0.8655;0.4572;-0.1920;0.4189;-0.3665;
15.0500;3.4169;0.8655;0.4572;-0.1920;0.4189;-0.3665;
15.0550;3.4169;0.8655;0.4572;-0.1920;0.4189;-0.3665;
15.0560;3.4169;0.8655;0.4572;-0.2094;0.5236;-1.8849;
15.0570;-0.4518;3.5462;-0.5987;-0.2094;0.5236;-1.8849;
15.1170;-0.4518;3.5462;-0.5987;-0.2094;0.5236;-1.8849;
15.1210;-0.4518;3.5462;-0.5987;-0.2094;0.5236;-1.8849;
15.1220;-0.4518;3.5462;-0.5987;-0.1047;0.4538;-4.2585;
15.1230;4.8008;2.0175;-2.3843;-0.1047;0.4538;-4.2585;
15.1820;4.8008;2.0175;-2.3843;-0.1047;0.4538;-4.2585;
15.1860;4.8008;2.0175;-2.3843;-0.1047;0.4538;-4.2585;
15.1870;4.8008;2.0175;-2.3843;0.0698;0.3840;-4.2061;
15.1880;8.7849;2.8653;-3.3779;0.0698;0.3840;-4.2061;
15.2480;8.7849;2.8653;-3.3779;0.0698;0.3840;-4.2061;
15.2530;8.7849;2.8653;-3.3779;0.0698;0.3840;-4.2061;
15.2530;8.7849;2.8653;-3.3779;0.3490;0.5236;-2.7750;
15.2540;-1.6756;-4.3437;16.2501;0.3490;0.5236;-2.7750;
15.3150;-1.6756;-4.3437;16.2501;0.3490;0.5236;-2.7750;
15.3360;-1.6756;-4.3437;16.2501;0.3490;0.5236;-2.7750;
15.3380;-1.6756;-4.3437;16.2501;0.4538;0.9773;0.5585;
15.3400;-8.6485;5.4939;3.2713;0.4538;0.9773;0.5585;
15.3800;-8.6485;5.4939;3.2713;0.4538;0.9773;0.5585;
15.3850;-8.6485;5.4939;3.2713;0.4538;0.9773;0.5585;
15.3860;-8.6485;5.4939;3.2713;0.3490;0.8726;3.1764;
15.4000;2.6246;-8.2603;9.7416;0.3490;0.8726;3.1764;
15.4460;2.6246;-8.2603;9.7416;0.3490;0.8726;3.1764;
15.4550;2.6246;-8.2603;9.7416;0.3490;0.8726;3.1764;
15.4560;2.6246;-8.2603;9.7416;0.4887;0.5236;1.4835;
15.4570;7.3629;2.9759;-6.8005;0.4887;0.5236;1.4835;
15.5310;7.3629;2.9759;-6.8005;0.4887;0.5236;1.4835;
15.5320;7.3629;2.9759;-6.8005;0.4887;0.5236;1.4835;
15.5330;7.3629;2.9759;-6.8005;0.5759;-0.3490;0.5236;
15.5340;1.9248;1.5109;-2.9296;0.5759;-0.3490;0.5236;
15.5780;1.9248;1.5109;-2.9296;0.5759;-0.3490;0.5236;
15.5870;1.9248;1.5109;-2.9296;0.5759;-0.3490;0.5236;
15.5880;1.9248;1.5109;-2.9296;0.6458;-0.5236;-2.7575;
15.5890;0.3368;-1.7911;-7.8091;0.6458;-0.5236;-2.7575;
15.6440;0.3368;-1.7911;-7.8091;0.6458;-0.5236;-2.7575;
15.6490;0.3368;-1.7911;-7.8091;0.6458;-0.5236;-2.7575;
15.6500;0.3368;-1.7911;-7.8091;0.5061;-0.1920;-2.0071;
15.6570;-2.4114;2.6390;5.2934;0.5061;-0.1920;-2.0071;
15.7120;-2.4114;2.6390;5.2934;0.5061;-0.1920;-2.0071;
15.7150;-2.4114;2.6390;5.2934;0.5061;-0.1920;-2.0071;
15.7160;-2.4114;2.6390;5.2934;-0.1222;0.7156;0.6981;
15.7170;-0.0609;1.8370;-0.5216;-0.1222;0.7156;0.6981;
15.7760;-0.0609;1.8370;-0.5216;-0.1222;0.7156;0.6981;
15.7830;-0.0609;1.8370;-0.5216;-0.1222;0.7156;0.6981;
15.7850;-0.0609;1.8370;-0.5216;-0.6806;0.8552;2.8622;
15.7860;-0.1188;0.0682;-1.4515;-0.6806;0.8552;2.8622;
15.8430;-0.1188;0.0682;-1.4515;-0.6806;0.8552;2.8622;
15.8480;-0.1188;0.0682;-1.4515;-0.6806;0.8552;2.8622;
15.8480;-0.1188;0.0682;-1.4515;-0.8377;0.5410;2.8797;
15.8500;-0.0069;-1.8311;-1.6356;-0.8377;0.5410;2.8797;
15.9080;-0.0069;-1.8311;-1.6356;-0.8377;0.5410;2.8797;
15.9130;-0.0069;-1.8311;-1.6356;-0.8377;0.5410;2.8797;
15.9140;-0.0069;-1.8311;-1.6356;-0.8552;0.1222;2.8972;
15.9140;-1.4183;1.4135;-2.1470;-0.8552;0.1222;2.8972;
15.9740;-1.4183;1.4135;-2.1470;-0.8552;0.1222;2.8972;
15.9790;-1.4183;1.4135;-2.1470;-0.8552;0.1222;2.8972;
15.9800;-1.4183;1.4135;-2.1470;-0.1920;0.2269;-0.5759;
15.9810;-3.7992;0.7189;8.1726;-0.1920;0.2269;-0.5759;
16.0410;-3.7992;0.7189;8.1726;-0.1920;0.2269;-0.5759;
16.0450;-3.7992;0.7189;8.1726;-0.1920;0.2269;-0.5759;
16.0460;-3.7992;0.7189;8.1726;-0.1745;0.2269;-0.5410;
16.0470;-2.8708;-6.9537;-3.9711;-0.1745;0.2269;-0.5410;
16.1060;-2.8708;-6.9537;-3.9711;-0.1745;0.2269;-0.5410;
16.1100;-2.8708;-6.9537;-3.9711;-0.1745;0.2269;-0.5410;
16.1110;-2.8708;-6.9537;-3.9711;-0.1920;0.2618;-0.5061;
16.1120;3.0945;-3.6629;4.6694;-0.1920;0.2618;-0.5061;
16.1720;3.0945;-3.6629;4.6694;-0.1920;0.2618;-0.5061;
16.1770;3.0945;-3.6629;4.6694;-0.1920;0.2618;-0.5061;
16.1770;3.0945;-3.6629;4.6694;-0.1745;0.5934;-0.4712;
16.1780;-0.5780;3.4848;-1.3031;-0.1745;0.5934;-0.4712;
16.2380;-0.5780;3.4848;-1.3031;-0.1745;0.5934;-0.4712;
16.2420;-0.5780;3.4848;-1.3031;-0.1745;0.5934;-0.4712;
16.2430;-0.5780;3.4848;-1.3031;-0.1920;0.6981;-3.2637;
16.2440;3.9007;2.0980;-3.0215;-0.1920;0.6981;-3.2637;
16.3040;3.9007;2.0980;-3.0215;-0.1920;0.6981;-3.2637;
16.3080;3.9007;2.0980;-3.0215;-0.1920;0.6981;-3.2637;
16.3090;3.9007;2.0980;-3.0215;-0.0698;0.5759;-4.6250;
16.3090;7.5543;3.1925;-2.2612;-0.0698;0.5759;-4.6250;
16.3700;7.5543;3.1925;-2.2612;-0.0698;0.5759;-4.6250;
16.3750;7.5543;3.1925;-2.2612;-0.0698;0.5759;-4.6250;
16.3760;7.5543;3.1925;-2.2612;0.1571;0.5934;-4.6424;
16.3770;-1.6520;-1.1348;8.1320;0.1571;0.5934;-4.6424;
16.4360;-1.6520;-1.1348;8.1320;0.1571;0.5934;-4.6424;
16.4410;-1.6520;-1.1348;8.1320;0.1571;0.5934;-4.6424;
16.4420;-1.6520;-1.1348;8.1320;0.4887;1.0821;-3.3684;
16.4430;-7.0500;2.8500;4.9353;0.4887;1.0821;-3.3684;
16.5040;-7.0500;2.8500;4.9353;0.4887;1.0821;-3.3684;
16.5080;-7.0500;2.8500;4.9353;0.4887;1.0821;-3.3684;
16.5110;-7.0500;2.8500;4.9353;0.8203;1.9198;-0.7330;
16.5140;2.8430;-6.2209;-2.4540;0.8203;1.9198;-0.7330;
16.5730;2.8430;-6.2209;-2.4540;0.8203;1.9198;-0.7330;
16.5760;2.8430;-6.2209;-2.4540;0.8203;1.9198;-0.7330;
16.5770;2.8430;-6.2209;-2.4540;0.8377;2.0943;-0.6632;
16.5780;5.8032;-0.2298;-5.8215;0.8377;2.0943;-0.6632;
16.6360;5.8032;-0.2298;-5.8215;0.8377;2.0943;-0.6632;
16.6390;5.8032;-0.2298;-5.8215;0.8377;2.0943;-0.6632;
16.6400;5.8032;-0.2298;-5.8215;0.7505;1.3089;-0.3665;
16.6410;-0.7132;0.0821;-2.8918;0.7505;1.3089;-0.3665;
16.7000;-0.7132;0.0821;-2.8918;0.7505;1.3089;-0.3665;
16.7050;-0.7132;0.0821;-2.8918;0.7505;1.3089;-0.3665;
16.7060;-0.7132;0.0821;-2.8918;0.5061;0.2967;-0.0698;
16.7070;-2.0133;2.6608;3.0387;0.5061;0.2967;-0.0698;
16.7670;-2.0133;2.6608;3.0387;0.5061;0.2967;-0.0698;
16.7710;-2.0133;2.6608;3.0387;0.5061;0.2967;-0.0698;
16.7720;-2.0133;2.6608;3.0387;0.3316;0.4712;-0.1571;
16.7740;1.5088;0.5312;0.5579;0.3316;0.4712;-0.1571;
16.8340;1.5088;0.5312;0.5579;0.3316;0.4712;-0.1571;
16.8370;1.5088;0.5312;0.5579;0.3316;0.4712;-0.1571;
16.8380;1.5088;0.5312;0.5579;-0.1745;0.9773;0.5410;
16.8390;0.6458;-0.1427;-0.2994;-0.1745;0.9773;0.5410;
16.9770;0.6458;-0.1427;-0.2994;-0.1745;0.9773;0.5410;
16.9780;0.6458;-0.1427;-0.2994;-0.9075;0.3490;1.8500;
16.9790;0.6458;-0.1427;-0.2994;-0.9075;0.3490;1.8500;
16.9800;0.6458;-0.1427;-0.2994;-0.9075;0.3490;1.8500;
16.9800;-2.0778;0.5800;-0.6503;-0.9075;0.3490;1.8500;
16.9810;-2.0778;0.5800;-0.6503;-0.9075;0.3490;1.8500;
16.9820;-2.0778;0.5800;-0.6503;-0.9075;0.3490;1.8500;
16.9840;-2.0778;0.5800;-0.6503;-0.9075;0.3490;1.8500;
16.9850;-2.0778;0.5800;-0.6503;-0.9075;0.3490;1.8500;
17.0300;-2.0778;0.5800;-0.6503;-0.9075;0.3490;1.8500;
17.0350;-2.0778;0.5800;-0.6503;-0.9075;0.3490;1.8500;
17.0350;-2.0778;0.5800;-0.6503;-0.8726;0.2269;1.8500;
17.0360;-4.1577;1.9981;-1.1183;-0.8726;0.2269;1.8500;
17.1010;-4.1577;1.9981;-1.1183;-0.8726;0.2269;1.8500;
17.1040;-4.1577;1.9981;-1.1183;-0.8726;0.2269;1.8500;
17.1060;-4.1577;1.9981;-1.1183;-0.2792;0.2967;-0.3665;
17.1070;-2.0779;0.5724;5.2469;-0.2792;0.2967;-0.3665;
17.1620;-2.0779;0.5724;5.2469;-0.2792;0.2967;-0.3665;
17.1670;-2.0779;0.5724;5.2469;-0.2792;0.2967;-0.3665;
17.1680;-2.0779;0.5724;5.2469;-0.2792;0.5585;-0.4363;
17.1690;-3.0825;-9.0873;-4.9615;-0.2792;0.5585;-0.4363;
17.2280;-3.0825;-9.0873;-4.9615;-0.2792;0.5585;-0.4363;
17.2330;-3.0825;-9.0873;-4.9615;-0.2792;0.5585;-0.4363;
17.2340;-3.0825;-9.0873;-4.9615;-0.3316;0.8203;-0.5934;
17.2350;4.2062;-3.7386;2.1847;-0.3316;0.8203;-0.5934;
17.2940;4.2062;-3.7386;2.1847;-0.3316;0.8203;-0.5934;
17.2990;4.2062;-3.7386;2.1847;-0.3316;0.8203;-0.5934;
17.2990;4.2062;-3.7386;2.1847;-0.2618;0.9424;-0.6458;
17.3000;-1.5771;4.2402;-1.0906;-0.2618;0.9424;-0.6458;
17.3600;-1.5771;4.2402;-1.0906;-0.2618;0.9424;-0.6458;
17.3640;-1.5771;4.2402;-1.0906;-0.2618;0.9424;-0.6458;
17.3650;-1.5771;4.2402;-1.0906;-0.0349;0.7854;-3.2462;
17.3660;4.8526;2.2432;-2.4651;-0.0349;0.7854;-3.2462;
17.4260;4.8526;2.2432;-2.4651;-0.0349;0.7854;-3.2462;
17.4300;4.8526;2.2432;-2.4651;-0.0349;0.7854;-3.2462;
17.4310;4.8526;2.2432;-2.4651;0.3316;0.6458;-4.5377;
17.4310;9.9097;3.4299;-3.9033;0.3316;0.6458;-4.5377;
17.4920;9.9097;3.4299;-3.9033;0.3316;0.6458;-4.5377;
17.4960;9.9097;3.4299;-3.9033;0.3316;0.6458;-4.5377;
17.4970;9.9097;3.4299;-3.9033;0.7330;1.0821;-4.5726;
17.4970;-5.6979;-6.2385;13.9890;0.7330;1.0821;-4.5726;
17.5590;-5.6979;-6.2385;13.9890;0.7330;1.0821;-4.5726;
17.5620;-5.6979;-6.2385;13.9890;0.7330;1.0821;-4.5726;
17.5630;-5.6979;-6.2385;13.9890;0.7505;1.7802;0.3141;
17.5630;-0.4760;4.9163;-3.1374;0.7505;1.7802;0.3141;
17.6240;-0.4760;4.9163;-3.1374;0.7505;1.7802;0.3141;
17.6310;-0.4760;4.9163;-3.1374;0.7505;1.7802;0.3141;
17.6310;-0.4760;4.9163;-3.1374;0.5061;1.2740;2.9146;
17.6320;5.5643;-7.8262;10.4966;0.5061;1.2740;2.9146;
17.6900;5.5643;-7.8262;10.4966;0.5061;1.2740;2.9146;
17.6950;5.5643;-7.8262;10.4966;0.5061;1.2740;2.9146;
17.6950;5.5643;-7.8262;10.4966;0.6458;0.5061;1.6580;
17.6960;5.4213;1.8422;-6.6185;0.6458;0.5061;1.6580;
17.7590;5.4213;1.8422;-6.6185;0.6458;0.5061;1.6580;
17.7600;5.4213;1.8422;-6.6185;0.6458;0.5061;1.6580;
17.7610;5.4213;1.8422;-6.6185;0.7854;-0.5061;-0.0349;
17.7610;-0.5005;1.4824;-2.7421;0.7854;-0.5061;-0.0349;
17.8240;-0.5005;1.4824;-2.7421;0.7854;-0.5061;-0.0349;
17.8260;-0.5005;1.4824;-2.7421;0.7854;-0.5061;-0.0349;
17.8270;-0.5005;1.4824;-2.7421;1.0472;-0.1222;-2.2514;
17.8280;-3.5646;1.1251;-5.0715;1.0472;-0.1222;-2.2514;
17.8880;-3.5646;1.1251;-5.0715;1.0472;-0.1222;-2.2514;
17.8920;-3.5646;1.1251;-5.0715;1.0472;-0.1222;-2.2514;
17.8930;-3.5646;1.1251;-5.0715;0.4538;0.3316;-0.9599;
17.8930;-0.3531;2.0006;3.4789;0.4538;0.3316;-0.9599;
17.9550;-0.3531;2.0006;3.4789;0.4538;0.3316;-0.9599;
17.9580;-0.3531;2.0006;3.4789;0.4538;0.3316;-0.9599;
17.9590;-0.3531;2.0006;3.4789;-0.6458;0.4887;1.9896;
17.9590;1.2029;0.9729;1.6517;-0.6458;0.4887;1.9896;
18.0200;1.2029;0.9729;1.6517;-0.6458;0.4887;1.9896;
18.0240;1.2029;0.9729;1.6517;-0.6458;0.4887;1.9896;
18.0250;1.2029;0.9729;1.6517;-0.9599;0.2618;1.9547;
18.0250;0.9774;-0.3065;-2.8494;-0.9599;0.2618;1.9547;
18.0860;0.9774;-0.3065;-2.8494;-0.9599;0.2618;1.9547;
18.0900;0.9774;-0.3065;-2.8494;-0.9599;0.2618;1.9547;
18.0910;0.9774;-0.3065;-2.8494;-0.9948;0.0174;1.9373;
18.0910;-1.1559;-1.3141;-0.5683;-0.9948;0.0174;1.9373;
18.1520;-1.1559;-1.3141;-0.5683;-0.9948;0.0174;1.9373;
18.1560;-1.1559;-1.3141;-0.5683;-0.9948;0.0174;1.9373;
18.1570;-1.1559;-1.3141;-0.5683;-0.2269;0.0524;-0.4712;
18.1570;-3.2897;0.4748;-0.1330;-0.2269;0.0524;-0.4712;
18.2180;-3.2897;0.4748;-0.1330;-0.2269;0.0524;-0.4712;
18.2220;-3.2897;0.4748;-0.1330;-0.2269;0.0524;-0.4712;
18.2230;-3.2897;0.4748;-0.1330;-0.0349;0.2269;-0.3665;
18.2240;-3.8121;1.9820;1.7626;-0.0349;0.2269;-0.3665;
18.2840;-3.8121;1.9820;1.7626;-0.0349;0.2269;-0.3665;
18.2880;-3.8121;1.9820;1.7626;-0.0349;0.2269;-0.3665;
18.2890;-3.8121;1.9820;1.7626;-0.0174;0.1571;-0.2967;
18.2890;-5.0508;-7.4686;-2.5772;-0.0174;0.1571;-0.2967;
18.3500;-5.0508;-7.4686;-2.5772;-0.0174;0.1571;-0.2967;
18.3540;-5.0508;-7.4686;-2.5772;-0.0174;0.1571;-0.2967;
18.3550;-5.0508;-7.4686;-2.5772;-0.0349;0.2618;-0.3665;
18.3550;0.1742;-7.7866;-2.9129;-0.0349;0.2618;-0.3665;
18.4160;0.1742;-7.7866;-2.9129;-0.0349;0.2618;-0.3665;
18.4200;0.1742;-7.7866;-2.9129;-0.0349;0.2618;-0.3665;
18.4210;0.1742;-7.7866;-2.9129;-0.0524;0.5585;-0.5585;
18.4210;1.8997;2.7877;2.7654;-0.0524;0.5585;-0.5585;
18.4820;1.8997;2.7877;2.7654;-0.0524;0.5585;-0.5585;
18.4860;1.8997;2.7877;2.7654;-0.0524;0.5585;-0.5585;
18.4870;1.8997;2.7877;2.7654;0.0000;0.6283;-0.5759;
18.4870;2.0972;2.1127;-3.8043;0.0000;0.6283;-0.5759;
18.5480;2.0972;2.1127;-3.8043;0.0000;0.6283;-0.5759;
18.5520;2.0972;2.1127;-3.8043;0.0000;0.6283;-0.5759;
18.5530;2.0972;2.1127;-3.8043;0.0698;0.2967;-0.4014;
18.5530;6.9508;3.0853;-1.4246;0.0698;0.2967;-0.4014;
18.6140;6.9508;3.0853;-1.4246;0.0698;0.2967;-0.4014;
18.6180;6.9508;3.0853;-1.4246;0.0698;0.2967;-0.4014;
18.6190;6.9508;3.0853;-1.4246;0.3141;-0.0174;-1.4835;
18.6190;5.5100;1.7115;-0.1147;0.3141;-0.0174;-1.4835;
18.6800;5.5100;1.7115;-0.1147;0.3141;-0.0174;-1.4835;
18.6840;5.5100;1.7115;-0.1147;0.3141;-0.0174;-1.4835;
18.6850;5.5100;1.7115;-0.1147;0.2618;-0.2618;0.1396;
18.6850;-14.4027;2.0176;5.8402;0.2618;-0.2618;0.1396;
18.7460;-14.4027;2.0176;5.8402;0.2618;-0.2618;0.1396;
18.7500;-14.4027;2.0176;5.8402;0.2618;-0.2618;0.1396;
18.7510;-14.4027;2.0176;5.8402;0.2618;-0.5061;0.3840;
18.7510;0.7959;1.6632;-1.6827;0.2618;-0.5061;0.3840;
18.8120;0.7959;1.6632;-1.6827;0.2618;-0.5061;0.3840;
18.8160;0.7959;1.6632;-1.6827;0.2618;-0.5061;0.3840;
18.8170;0.7959;1.6632;-1.6827;0.3316;-0.5236;1.2042;
18.8170;9.9777;-7.4648;0.6369;0.3316;-0.5236;1.2042;
18.8780;9.9777;-7.4648;0.6369;0.3316;-0.5236;1.2042;
18.8820;9.9777;-7.4648;0.6369;0.3316;-0.5236;1.2042;
18.8830;9.9777;-7.4648;0.6369;0.7854;-0.6806;-2.3561;
18.8840;6.9165;4.3256;-4.0409;0.7854;-0.6806;-2.3561;
18.9480;6.9165;4.3256;-4.0409;0.7854;-0.6806;-2.3561;
18.9490;6.9165;4.3256;-4.0409;0.7854;-0.6806;-2.3561;
18.9500;6.9165;4.3256;-4.0409;0.7679;-0.7505;-2.4259;
18.9500;1.5130;0.1392;-2.0761;0.7679;-0.7505;-2.4259;
19.0100;1.5130;0.1392;-2.0761;0.7679;-0.7505;-2.4259;
19.0140;1.5130;0.1392;-2.0761;0.7679;-0.7505;-2.4259;
19.0150;1.5130;0.1392;-2.0761;0.4538;-0.4712;-1.8325;
19.0160;-2.3502;1.2103;0.1206;0.4538;-0.4712;-1.8325;
19.0760;-2.3502;1.2103;0.1206;0.4538;-0.4712;-1.8325;
19.0800;-2.3502;1.2103;0.1206;0.4538;-0.4712;-1.8325;
19.0810;-2.3502;1.2103;0.1206;-0.0174;0.2094;-0.0349;
19.0810;-1.9144;2.2861;0.3753;-0.0174;0.2094;-0.0349;
19.1420;-1.9144;2.2861;0.3753;-0.0174;0.2094;-0.0349;
19.1460;-1.9144;2.2861;0.3753;-0.0174;0.2094;-0.0349;
19.1470;-1.9144;2.2861;0.3753;-0.4887;0.5759;2.2863;
19.1480;0.7273;1.4830;0.3508;-0.4887;0.5759;2.2863;
19.2080;0.7273;1.4830;0.3508;-0.4887;0.5759;2.2863;
19.2120;0.7273;1.4830;0.3508;-0.4887;0.5759;2.2863;
19.2130;0.7273;1.4830;0.3508;-0.6632;0.2792;2.3736;
19.2130;-0.6917;-1.4414;-1.6925;-0.6632;0.2792;2.3736;
19.2740;-0.6917;-1.4414;-1.6925;-0.6632;0.2792;2.3736;
19.2780;-0.6917;-1.4414;-1.6925;-0.6632;0.2792;2.3736;
19.2790;-0.6917;-1.4414;-1.6925;-0.6632;0.0000;2.4259;
19.2790;-1.6215;0.1995;-2.0729;-0.6632;0.0000;2.4259;
19.3400;-1.6215;0.1995;-2.0729;-0.6632;0.0000;2.4259;
19.3450;-1.6215;0.1995;-2.0729;-0.6632;0.0000;2.4259;
19.3450;-1.6215;0.1995;-2.0729;-0.2443;0.0524;-0.4189;
19.3460;-5.1411;1.2415;3.0120;-0.2443;0.0524;-0.4189;
19.4060;-5.1411;1.2415;3.0120;-0.2443;0.0524;-0.4189;
19.4110;-5.1411;1.2415;3.0120;-0.2443;0.0524;-0.4189;
19.4120;-5.1411;1.2415;3.0120;-0.1396;0.4189;-0.5410;
19.4130;-3.7786;-3.2314;-1.5054;-0.1396;0.4189;-0.5410;
19.4720;-3.7786;-3.2314;-1.5054;-0.1396;0.4189;-0.5410;
19.4770;-3.7786;-3.2314;-1.5054;-0.1396;0.4189;-0.5410;
19.4770;-3.7786;-3.2314;-1.5054;-0.1396;0.4887;-0.5585;
19.4780;-0.4017;-7.9171;-3.1849;-0.1396;0.4887;-0.5585;
19.5380;-0.4017;-7.9171;-3.1849;-0.1396;0.4887;-0.5585;
19.5420;-0.4017;-7.9171;-3.1849;-0.1396;0.4887;-0.5585;
19.5430;-0.4017;-7.9171;-3.1849;-0.1745;0.6283;-0.6108;
19.5440;2.1569;0.7319;5.2171;-0.1745;0.6283;-0.6108;
19.6040;2.1569;0.7319;5.2171;-0.1745;0.6283;-0.6108;
19.6080;2.1569;0.7319;5.2171;-0.1745;0.6283;-0.6108;
19.6090;2.1569;0.7319;5.2171;-0.1571;0.7330;-0.6108;
19.6100;-0.4058;2.3987;-0.9480;-0.1571;0.7330;-0.6108;
19.6700;-0.4058;2.3987;-0.9480;-0.1571;0.7330;-0.6108;
19.6790;-0.4058;2.3987;-0.9480;-0.1571;0.7330;-0.6108;
19.6800;-0.4058;2.3987;-0.9480;-0.1396;0.7505;-0.2967;
19.6800;5.9266;2.1312;-1.7558;-0.1396;0.7505;-0.2967;
19.7360;5.9266;2.1312;-1.7558;-0.1396;0.7505;-0.2967;
19.7430;5.9266;2.1312;-1.7558;-0.1396;0.7505;-0.2967;
19.7430;5.9266;2.1312;-1.7558;-0.3665;1.0646;0.0524;
19.7440;9.3633;2.0468;-1.5211;-0.3665;1.0646;0.0524;
19.8020;9.3633;2.0468;-1.5211;-0.3665;1.0646;0.0524;
19.8060;9.3633;2.0468;-1.5211;-0.3665;1.0646;0.0524;
19.8070;9.3633;2.0468;-1.5211;-0.9773;2.0420;0.3840;
19.8080;-11.3667;-2.4698;9.9398;-0.9773;2.0420;0.3840;
19.8680;-11.3667;-2.4698;9.9398;-0.9773;2.0420;0.3840;
19.8720;-11.3667;-2.4698;9.9398;-0.9773;2.0420;0.3840;
19.8730;-11.3667;-2.4698;9.9398;-2.0071;4.0141;0.7330;
19.8740;1.0991;4.9971;-1.9881;-2.0071;4.0141;0.7330;
19.9340;1.0991;4.9971;-1.9881;-2.0071;4.0141;0.7330;
19.9380;1.0991;4.9971;-1.9881;-2.0071;4.0141;0.7330;
19.9390;1.0991;4.9971;-1.9881;-2.4783;4.5028;-0.1571;
19.9400;6.7097;-8.5026;7.1916;-2.4783;4.5028;-0.1571;
20.0140;6.7097;-8.5026;7.1916;-2.4783;4.5028;-0.1571;
20.0150;6.7097;-8.5026;7.1916;-2.4783;3.8920;-2.2514;
20.0160;6.9569;-0.4188;-4.6057;-2.4783;3.8920;-2.2514;
20.0230;6.9569;-0.4188;-4.6057;-2.4783;3.8920;-2.2514;
20.0660;6.9569;-0.4188;-4.6057;-2.4783;3.8920;-2.2514;
20.0710;6.9569;-0.4188;-4.6057;-2.4783;3.8920;-2.2514;
20.0720;6.9569;-0.4188;-4.6057;-1.5707;1.1519;-2.3387;
20.0730;0.9151;0.5356;-2.4308;-1.5707;1.1519;-2.3387;
20.1410;0.9151;0.5356;-2.4308;-1.5707;1.1519;-2.3387;
20.1420;0.9151;0.5356;-2.4308;-1.5707;1.1519;-2.3387;
20.1430;0.9151;0.5356;-2.4308;-0.9075;-0.9773;-2.3910;
20.1440;-0.9300;0.2657;-4.1304;-0.9075;-0.9773;-2.3910;
20.2050;-0.9300;0.2657;-4.1304;-0.9075;-0.9773;-2.3910;
20.2070;-0.9300;0.2657;-4.1304;-0.9075;-0.9773;-2.3910;
20.2100;-0.9300;0.2657;-4.1304;-0.4538;-1.0821;-0.0349;
20.2110;-1.2489;2.0628;4.2018;-0.4538;-1.0821;-0.0349;
20.2770;-1.2489;2.0628;4.2018;-0.4538;-1.0821;-0.0349;
20.2790;-1.2489;2.0628;4.2018;-0.3490;-0.7156;1.0123;
20.2830;0.7510;1.9864;-1.0633;-0.3490;-0.7156;1.0123;
20.2840;0.7510;1.9864;-1.0633;-0.3490;-0.7156;1.0123;
20.3300;0.7510;1.9864;-1.0633;-0.3490;-0.7156;1.0123;
20.3350;0.7510;1.9864;-1.0633;-0.3490;-0.7156;1.0123;
20.3360;0.7510;1.9864;-1.0633;-0.2094;-0.2269;2.9321;
20.3370;0.0313;-1.4131;-1.7756;-0.2094;-0.2269;2.9321;
20.4110;0.0313;-1.4131;-1.7756;-0.2094;-0.2269;2.9321;
20.4120;0.0313;-1.4131;-1.7756;-0.2094;-0.2269;2.9321;
20.4130;0.0313;-1.4131;-1.7756;-0.1047;0.0174;2.9495;
20.4140;0.0514;-1.9790;-0.9563;-0.1047;0.0174;2.9495;
20.4620;0.0514;-1.9790;-0.9563;-0.1047;0.0174;2.9495;
20.4670;0.0514;-1.9790;-0.9563;-0.1047;0.0174;2.9495;
20.4670;0.0514;-1.9790;-0.9563;0.0349;0.2269;1.8674;
20.4680;-7.8230;2.4102;-1.1161;0.0349;0.2269;1.8674;
20.5280;-7.8230;2.4102;-1.1161;0.0349;0.2269;1.8674;
20.5340;-7.8230;2.4102;-1.1161;0.0349;0.2269;1.8674;
20.5350;-7.8230;2.4102;-1.1161;-0.1745;0.2443;-0.3141;
20.5360;-1.5009;-1.1707;-0.8064;-0.1745;0.2443;-0.3141;
20.5950;-1.5009;-1.1707;-0.8064;-0.1745;0.2443;-0.3141;
20.5990;-1.5009;-1.1707;-0.8064;-0.1745;0.2443;-0.3141;
20.6010;-1.5009;-1.1707;-0.8064;-0.1745;0.1047;-0.4189;
20.6020;-1.4864;-9.1378;-3.4720;-0.1745;0.1047;-0.4189;
20.6610;-1.4864;-9.1378;-3.4720;-0.1745;0.1047;-0.4189;
20.6650;-1.4864;-9.1378;-3.4720;-0.1745;0.1047;-0.4189;
20.6660;-1.4864;-9.1378;-3.4720;-0.1222;0.0000;-0.5934;
20.6670;5.2758;-1.4417;2.3416;-0.1222;0.0000;-0.5934;
20.7260;5.2758;-1.4417;2.3416;-0.1222;0.0000;-0.5934;
20.7310;5.2758;-1.4417;2.3416;-0.1222;0.0000;-0.5934;
20.7430;5.2758;-1.4417;2.3416;0.0000;-0.0174;-0.6632;
20.7440;-1.3352;5.3421;1.0173;0.0000;-0.0174;-0.6632;
20.7920;-1.3352;5.3421;1.0173;0.0000;-0.0174;-0.6632;
20.7970;-1.3352;5.3421;1.0173;0.0000;-0.0174;-0.6632;
20.7980;-1.3352;5.3421;1.0173;0.1920;0.0524;-1.7976;
20.7980;5.6240;1.8331;-2.2482;0.1920;0.0524;-1.7976;
20.8580;5.6240;1.8331;-2.2482;0.1920;0.0524;-1.7976;
20.8630;5.6240;1.8331;-2.2482;0.1920;0.0524;-1.7976;
20.8640;5.6240;1.8331;-2.2482;0.1920;0.0000;-4.4679;
20.8640;8.3723;3.8208;-4.1220;0.1920;0.0000;-4.4679;
20.9240;8.3723;3.8208;-4.1220;0.1920;0.0000;-4.4679;
20.9300;8.3723;3.8208;-4.1220;0.1920;0.0000;-4.4679;
20.9310;8.3723;3.8208;-4.1220;0.1047;-0.1571;-4.4854;
20.9320;-8.1401;-3.9136;15.5115;0.1047;-0.1571;-4.4854;
20.9900;-8.1401;-3.9136;15.5115;0.1047;-0.1571;-4.4854;
21.0160;-8.1401;-3.9136;15.5115;0.1047;-0.1571;-4.4854;
21.0180;-8.1401;-3.9136;15.5115;-0.1396;-0.4887;-3.4906;
21.0180;2.7728;4.8611;-4.4728;-0.1396;-0.4887;-3.4906;
21.0570;2.7728;4.8611;-4.4728;-0.1396;-0.4887;-3.4906;
21.0650;2.7728;4.8611;-4.4728;-0.1396;-0.4887;-3.4906;
21.0660;2.7728;4.8611;-4.4728;-0.1920;-0.6458;-0.7505;
21.0670;-0.3643;-6.0273;-1.8627;-0.1920;-0.6458;-0.7505;
21.1220;-0.3643;-6.0273;-1.8627;-0.1920;-0.6458;-0.7505;
21.1270;-0.3643;-6.0273;-1.8627;-0.1920;-0.6458;-0.7505;
21.1280;-0.3643;-6.0273;-1.8627;-0.1920;-0.6632;-0.6283;
21.1280;6.4061;-0.5484;-6.0182;-0.1920;-0.6632;-0.6283;
21.1890;6.4061;-0.5484;-6.0182;-0.1920;-0.6632;-0.6283;
21.1930;6.4061;-0.5484;-6.0182;-0.1920;-0.6632;-0.6283;
21.1940;6.4061;-0.5484;-6.0182;0.1396;-0.4887;-0.1745;
21.1940;-0.6457;0.0024;-2.4591;0.1396;-0.4887;-0.1745;
21.2570;-0.6457;0.0024;-2.4591;0.1396;-0.4887;-0.1745;
21.2590;-0.6457;0.0024;-2.4591;0.1396;-0.4887;-0.1745;
21.2600;-0.6457;0.0024;-2.4591;0.2094;-0.3141;0.0000;
21.2610;-3.6050;0.6212;-0.6714;0.2094;-0.3141;0.0000;
21.3200;-3.6050;0.6212;-0.6714;0.2094;-0.3141;0.0000;
21.3250;-3.6050;0.6212;-0.6714;0.2094;-0.3141;0.0000;
21.3250;-3.6050;0.6212;-0.6714;-0.0174;-0.2269;-0.0698;
21.3260;-1.4159;2.3740;0.5167;-0.0174;-0.2269;-0.0698;
21.3860;-1.4159;2.3740;0.5167;-0.0174;-0.2269;-0.0698;
21.3910;-1.4159;2.3740;0.5167;-0.0174;-0.2269;-0.0698;
21.3920;-1.4159;2.3740;0.5167;-0.0698;-0.1571;1.4835;
21.3920;1.0817;0.7079;-0.3589;-0.0698;-0.1571;1.4835;
21.4520;1.0817;0.7079;-0.3589;-0.0698;-0.1571;1.4835;
21.4570;1.0817;0.7079;-0.3589;-0.0698;-0.1571;1.4835;
21.4570;1.0817;0.7079;-0.3589;0.0524;-0.1047;2.3038;
21.4580;0.7203;0.3955;-1.2051;0.0524;-0.1047;2.3038;
21.5180;0.7203;0.3955;-1.2051;0.0524;-0.1047;2.3038;
21.5230;0.7203;0.3955;-1.2051;0.0524;-0.1047;2.3038;
21.5230;0.7203;0.3955;-1.2051;0.1920;0.0698;2.2689;
21.5250;-0.5150;-2.2910;-1.8713;0.1920;0.0698;2.2689;
21.5840;-0.5150;-2.2910;-1.8713;0.1920;0.0698;2.2689;
21.5880;-0.5150;-2.2910;-1.8713;0.1920;0.0698;2.2689;
21.5890;-0.5150;-2.2910;-1.8713;0.1745;0.1920;1.2915;
21.5900;-2.3084;0.3842;-1.1593;0.1745;0.1920;1.2915;
21.6500;-2.3084;0.3842;-1.1593;0.1745;0.1920;1.2915;
21.6550;-2.3084;0.3842;-1.1593;0.1745;0.1920;1.2915;
21.6560;-2.3084;0.3842;-1.1593;-0.1745;0.3840;-0.4712;
21.6570;-3.4373;1.4096;2.4340;-0.1745;0.3840;-0.4712;
21.7160;-3.4373;1.4096;2.4340;-0.1745;0.3840;-0.4712;
21.7220;-3.4373;1.4096;2.4340;-0.1745;0.3840;-0.4712;
21.7220;-3.4373;1.4096;2.4340;-0.1920;0.4189;-0.3316;
21.7250;-4.7224;-5.8188;-2.0595;-0.1920;0.4189;-0.3316;
21.7820;-4.7224;-5.8188;-2.0595;-0.1920;0.4189;-0.3316;
21.7870;-4.7224;-5.8188;-2.0595;-0.1920;0.4189;-0.3316;
21.7870;-4.7224;-5.8188;-2.0595;-0.1571;0.3490;-0.3141;
21.7880;2.1838;-7.2312;7.5708;-0.1571;0.3490;-0.3141;
21.8480;2.1838;-7.2312;7.5708;-0.1571;0.3490;-0.3141;
21.8530;2.1838;-7.2312;7.5708;-0.1571;0.3490;-0.3141;
21.8550;2.1838;-7.2312;7.5708;-0.0174;0.2443;-0.4189;
21.8600;0.2330;2.0624;0.3154;-0.0174;0.2443;-0.4189;
21.9190;0.2330;2.0624;0.3154;-0.0174;0.2443;-0.4189;
21.9200;0.2330;2.0624;0.3154;0.1396;0.1571;-0.4712;
21.9210;1.9913;1.7577;-3.7493;0.1396;0.1571;-0.4712;
21.9280;1.9913;1.7577;-3.7493;0.1396;0.1571;-0.4712;
21.9810;1.9913;1.7577;-3.7493;0.1396;0.1571;-0.4712;
21.9860;1.9913;1.7577;-3.7493;0.1396;0.1571;-0.4712;
21.9860;1.9913;1.7577;-3.7493;0.1745;0.0349;-4.0839;
21.9870;8.4034;3.2485;-3.5182;0.1745;0.0349;-4.0839;
22.0520;8.4034;3.2485;-3.5182;0.1745;0.0349;-4.0839;
22.0530;8.4034;3.2485;-3.5182;0.0698;-0.1047;-4.0839;
22.0540;2.3243;-1.5686;4.0101;0.0698;-0.1047;-4.0839;
22.0550;2.3243;-1.5686;4.0101;0.0698;-0.1047;-4.0839;
21.9990;2.3243;-1.5686;4.0101;0.0698;-0.1047;-4.0839;
22.0000;2.3243;-1.5686;4.0101;0.0698;-0.1047;-4.0839;
22.0010;2.3243;-1.5686;4.0101;0.0174;-0.1920;-4.0839;
22.0060;-13.5511;-2.0506;-0.5293;0.0174;-0.1920;-4.0839;
22.0570;-13.5511;-2.0506;-0.5293;0.0174;-0.1920;-4.0839;
22.0610;-13.5511;-2.0506;-0.5293;0.0174;-0.1920;-4.0839;
22.0620;-13.5511;-2.0506;-0.5293;0.0698;-0.2094;2.1292;
22.0630;1.9898;0.8450;-2.5551;0.0698;-0.2094;2.1292;
22.1220;1.9898;0.8450;-2.5551;0.0698;-0.2094;2.1292;
22.1260;1.9898;0.8450;-2.5551;0.0698;-0.2094;2.1292;
22.1270;1.9898;0.8450;-2.5551;0.0524;-0.2269;2.3212;
22.1280;7.3528;-6.6888;3.3263;0.0524;-0.2269;2.3212;
22.2000;7.3528;-6.6888;3.3263;0.0524;-0.2269;2.3212;
22.2000;7.3528;-6.6888;3.3263;-0.2792;-0.1571;-0.2094;
22.2010;4.0914;5.3465;-3.9842;-0.2792;-0.1571;-0.2094;
22.2020;4.0914;5.3465;-3.9842;-0.2792;-0.1571;-0.2094;
22.2620;4.0914;5.3465;-3.9842;-0.2792;-0.1571;-0.2094;
22.2640;4.0914;5.3465;-3.9842;-0.2094;-0.1571;-2.6005;
22.2650;-0.5976;0.5473;-2.3290;-0.2094;-0.1571;-2.6005;
22.2660;-0.5976;0.5473;-2.3290;-0.2094;-0.1571;-2.6005;
22.3200;-0.5976;0.5473;-2.3290;-0.2094;-0.1571;-2.6005;
22.3240;-0.5976;0.5473;-2.3290;-0.2094;-0.1571;-2.6005;
22.3250;-0.5976;0.5473;-2.3290;-0.1920;-0.1571;-2.7575;
22.3260;-1.1598;1.2431;3.0837;-0.1920;-0.1571;-2.7575;
22.3860;-1.1598;1.2431;3.0837;-0.1920;-0.1571;-2.7575;
22.3900;-1.1598;1.2431;3.0837;-0.1920;-0.1571;-2.7575;
22.3910;-1.1598;1.2431;3.0837;-0.0872;-0.2094;-0.2094;
22.3920;0.2852;0.8882;3.1189;-0.0872;-0.2094;-0.2094;
22.4520;0.2852;0.8882;3.1189;-0.0872;-0.2094;-0.2094;
22.4560;0.2852;0.8882;3.1189;-0.0872;-0.2094;-0.2094;
22.4580;0.2852;0.8882;3.1189;-0.0872;-0.1571;0.6108;
22.4590;0.5428;1.5593;-1.8406;-0.0872;-0.1571;0.6108;
22.5180;0.5428;1.5593;-1.8406;-0.0872;-0.1571;0.6108;
22.5220;0.5428;1.5593;-1.8406;-0.0872;-0.1571;0.6108;
22.5240;0.5428;1.5593;-1.8406;0.1047;-0.0174;2.3212;
22.5250;0.6799;-1.4778;-2.2141;0.1047;-0.0174;2.3212;
22.5860;0.6799;-1.4778;-2.2141;0.1047;-0.0174;2.3212;
22.5890;0.6799;-1.4778;-2.2141;0.1047;-0.0174;2.3212;
22.5910;0.6799;-1.4778;-2.2141;0.1920;0.1920;2.3387;
22.5920;-0.7046;-0.1070;0.4547;0.1920;0.1920;2.3387;
22.6500;-0.7046;-0.1070;0.4547;0.1920;0.1920;2.3387;
22.6590;-0.7046;-0.1070;0.4547;0.1920;0.1920;2.3387;
22.6600;-0.7046;-0.1070;0.4547;0.2443;0.2792;2.3212;
22.6610;-5.1535;1.7270;-1.3831;0.2443;0.2792;2.3212;
22.7230;-5.1535;1.7270;-1.3831;0.2443;0.2792;2.3212;
22.7240;-5.1535;1.7270;-1.3831;0.2443;0.2792;2.3212;
22.7260;-5.1535;1.7270;-1.3831;-0.2443;0.3490;-0.2792;
22.7640;-1.9581;-0.6523;1.8304;-0.2443;0.3490;-0.2792;
22.7870;-1.9581;-0.6523;1.8304;-0.2443;0.3490;-0.2792;
22.7880;-1.9581;-0.6523;1.8304;-0.2443;0.3490;-0.2792;
22.7890;-1.9581;-0.6523;1.8304;-0.2443;0.3316;-0.2967;
22.7890;-2.8041;-8.2242;-4.0827;-0.2443;0.3316;-0.2967;
22.8480;-2.8041;-8.2242;-4.0827;-0.2443;0.3316;-0.2967;
22.8530;-2.8041;-8.2242;-4.0827;-0.2443;0.3316;-0.2967;
22.8530;-2.8041;-8.2242;-4.0827;-0.2094;0.2094;-0.4538;
22.8540;2.9452;0.1687;3.6500;-0.2094;0.2094;-0.4538;
22.9140;2.9452;0.1687;3.6500;-0.2094;0.2094;-0.4538;
22.9240;2.9452;0.1687;3.6500;-0.2094;0.2094;-0.4538;
22.9250;2.9452;0.1687;3.6500;-0.0524;0.1222;-0.5410;
22.9260;-1.3154;2.8092;-1.3578;-0.0524;0.1222;-0.5410;
22.9840;-1.3154;2.8092;-1.3578;-0.0524;0.1222;-0.5410;
22.9850;-1.3154;2.8092;-1.3578;-0.0524;0.1222;-0.5410;
22.9860;-1.3154;2.8092;-1.3578;0.0698;0.1222;-0.4363;
22.9910;3.9364;2.2272;-1.4021;0.0698;0.1222;-0.4363;
23.0460;3.9364;2.2272;-1.4021;0.0698;0.1222;-0.4363;
23.0500;3.9364;2.2272;-1.4021;0.0698;0.1222;-0.4363;
23.0510;3.9364;2.2272;-1.4021;0.1745;0.0698;0.0349;
23.0540;8.5401;2.9468;-3.0780;0.1745;0.0698;0.0349;
23.1120;8.5401;2.9468;-3.0780;0.1745;0.0698;0.0349;
23.1160;8.5401;2.9468;-3.0780;0.1745;0.0698;0.0349;
23.1170;8.5401;2.9468;-3.0780;0.1920;-0.0524;0.3665;
23.1180;-10.2896;-3.2624;13.8946;0.1920;-0.0524;0.3665;
23.1780;-10.2896;-3.2624;13.8946;0.1920;-0.0524;0.3665;
23.1830;-10.2896;-3.2624;13.8946;0.1920;-0.0524;0.3665;
23.1840;-10.2896;-3.2624;13.8946;0.1047;-0.2618;0.5934;
23.1840;-6.7449;4.2806;1.5495;0.1047;-0.2618;0.5934;
23.2440;-6.7449;4.2806;1.5495;0.1047;-0.2618;0.5934;
23.2480;-6.7449;4.2806;1.5495;0.1047;-0.2618;0.5934;
23.2490;-6.7449;4.2806;1.5495;0.0698;-0.3665;0.6981;
23.2500;-2.4836;-7.0596;-1.1853;0.0698;-0.3665;0.6981;
23.3100;-2.4836;-7.0596;-1.1853;0.0698;-0.3665;0.6981;
23.3140;-2.4836;-7.0596;-1.1853;0.0698;-0.3665;0.6981;
23.3150;-2.4836;-7.0596;-1.1853;-0.2269;-0.3141;-2.3736;
23.3160;3.9962;4.1985;-5.4621;-0.2269;-0.3141;-2.3736;
23.3780;3.9962;4.1985;-5.4621;-0.2269;-0.3141;-2.3736;
23.3810;3.9962;4.1985;-5.4621;-0.2269;-0.3141;-2.3736;
23.3810;3.9962;4.1985;-5.4621;-0.0524;-0.0174;-2.3910;
23.3820;-0.1492;1.6896;-2.5318;-0.0524;-0.0174;-2.3910;
23.4420;-0.1492;1.6896;-2.5318;-0.0524;-0.0174;-2.3910;
23.4460;-0.1492;1.6896;-2.5318;-0.0524;-0.0174;-2.3910;
23.4470;-0.1492;1.6896;-2.5318;0.0000;0.0872;-2.5306;
23.4480;-3.2660;1.8151;-2.3176;0.0000;0.0872;-2.5306;
23.5080;-3.2660;1.8151;-2.3176;0.0000;0.0872;-2.5306;
23.5120;-3.2660;1.8151;-2.3176;0.0000;0.0872;-2.5306;
23.5130;-3.2660;1.8151;-2.3176;0.0174;0.0872;-0.0698;
23.5140;0.1476;0.1274;4.9665;0.0174;0.0872;-0.0698;
23.5740;0.1476;0.1274;4.9665;0.0174;0.0872;-0.0698;
23.5800;0.1476;0.1274;4.9665;0.0174;0.0872;-0.0698;
23.5810;0.1476;0.1274;4.9665;-0.0174;0.0698;0.8726;
23.5820;0.3788;-1.8611;-4.0970;-0.0174;0.0698;0.8726;
23.6400;0.3788;-1.8611;-4.0970;-0.0174;0.0698;0.8726;
23.6440;0.3788;-1.8611;-4.0970;-0.0174;0.0698;0.8726;
23.6450;0.3788;-1.8611;-4.0970;0.1571;0.0698;2.8797;
23.6460;1.6579;1.9108;-6.8059;0.1571;0.0698;2.8797;
23.7060;1.6579;1.9108;-6.8059;0.1571;0.0698;2.8797;
23.7110;1.6579;1.9108;-6.8059;0.1571;0.0698;2.8797;
23.7110;1.6579;1.9108;-6.8059;0.2967;0.2094;2.8797;
23.7120;-0.1965;-2.8435;1.1012;0.2967;0.2094;2.8797;
23.7760;-0.1965;-2.8435;1.1012;0.2967;0.2094;2.8797;
23.7830;-0.1965;-2.8435;1.1012;0.2967;0.2094;2.8797;
23.7840;-0.1965;-2.8435;1.1012;0.2443;0.2618;1.8674;
23.7840;-6.1542;2.8408;2.2028;0.2443;0.2618;1.8674;
23.8380;-6.1542;2.8408;2.2028;0.2443;0.2618;1.8674;
23.8460;-6.1542;2.8408;2.2028;0.2443;0.2618;1.8674;
23.8470;-6.1542;2.8408;2.2028;-0.2967;0.2792;-0.1222;
23.8480;-7.1169;4.1067;0.4895;-0.2967;0.2792;-0.1222;
23.9040;-7.1169;4.1067;0.4895;-0.2967;0.2792;-0.1222;
23.9100;-7.1169;4.1067;0.4895;-0.2967;0.2792;-0.1222;
23.9110;-7.1169;4.1067;0.4895;-0.4363;0.2269;-0.1047;
23.9120;-3.7785;-7.6041;-0.6809;-0.4363;0.2269;-0.1047;
23.9740;-3.7785;-7.6041;-0.6809;-0.4363;0.2269;-0.1047;
23.9800;-3.7785;-7.6041;-0.6809;-0.4363;0.2269;-0.1047;
23.9810;-3.7785;-7.6041;-0.6809;-0.2967;0.1396;-0.3840;
23.9820;5.4953;-2.6271;2.2576;-0.2967;0.1396;-0.3840;
24.0390;5.4953;-2.6271;2.2576;-0.2967;0.1396;-0.3840;
24.0400;5.4953;-2.6271;2.2576;-0.2967;0.1396;-0.3840;
24.0410;5.4953;-2.6271;2.2576;0.0349;0.1047;-0.6981;
24.0420;-1.0542;2.6767;0.6589;0.0349;0.1047;-0.6981;
24.1220;-1.0542;2.6767;0.6589;0.0349;0.1047;-0.6981;
24.1240;-1.0542;2.6767;0.6589;0.2094;0.1047;-2.2339;
24.1250;4.2457;2.0031;-1.5034;0.2094;0.1047;-2.2339;
24.1260;4.2457;2.0031;-1.5034;0.2094;0.1047;-2.2339;
24.1680;4.2457;2.0031;-1.5034;0.2094;0.1047;-2.2339;
24.1730;4.2457;2.0031;-1.5034;0.2094;0.1047;-2.2339;
24.1740;4.2457;2.0031;-1.5034;0.1396;0.0174;-4.9740;
24.1750;6.7223;4.8579;-2.1458;0.1396;0.0174;-4.9740;
24.2400;6.7223;4.8579;-2.1458;0.1396;0.0174;-4.9740;
24.2410;6.7223;4.8579;-2.1458;0.0000;-0.1745;-4.9042;
24.2430;4.3302;2.8732;0.1387;0.0000;-0.1745;-4.9042;
24.2500;4.3302;2.8732;0.1387;0.0000;-0.1745;-4.9042;
24.3000;4.3302;2.8732;0.1387;0.0000;-0.1745;-4.9042;
24.3050;4.3302;2.8732;0.1387;0.0000;-0.1745;-4.9042;
24.3060;4.3302;2.8732;0.1387;-0.2618;-0.5410;-3.5778;
24.3070;-14.0606;1.7037;6.7919;-0.2618;-0.5410;-3.5778;
24.3800;-14.0606;1.7037;6.7919;-0.2618;-0.5410;-3.5778;
24.3810;-14.0606;1.7037;6.7919;-0.2618;-0.5410;-3.5778;
24.3830;-14.0606;1.7037;6.7919;-0.3316;-0.7679;-0.8726;
24.3840;-0.4019;3.2439;-2.9580;-0.3316;-0.7679;-0.8726;
24.4330;-0.4019;3.2439;-2.9580;-0.3316;-0.7679;-0.8726;
24.4370;-0.4019;3.2439;-2.9580;-0.3316;-0.7679;-0.8726;
24.4380;-0.4019;3.2439;-2.9580;-0.3141;-0.8901;-0.7330;
24.4390;8.2124;1.2565;-6.3738;-0.3141;-0.8901;-0.7330;
24.4990;8.2124;1.2565;-6.3738;-0.3141;-0.8901;-0.7330;
24.5030;8.2124;1.2565;-6.3738;-0.3141;-0.8901;-0.7330;
24.5040;8.2124;1.2565;-6.3738;-0.0698;-0.8028;-0.4712;
24.5060;4.2468;4.9294;-4.6018;-0.0698;-0.8028;-0.4712;
24.5640;4.2468;4.9294;-4.6018;-0.0698;-0.8028;-0.4712;
24.5680;4.2468;4.9294;-4.6018;-0.0698;-0.8028;-0.4712;
24.5690;4.2468;4.9294;-4.6018;0.4538;-0.4014;0.1396;
24.5700;-3.1869;0.0841;-2.4297;0.4538;-0.4014;0.1396;
24.6310;-3.1869;0.0841;-2.4297;0.4538;-0.4014;0.1396;
24.6350;-3.1869;0.0841;-2.4297;0.4538;-0.4014;0.1396;
24.6370;-3.1869;0.0841;-2.4297;0.4014;-0.2094;0.2094;
24.6380;1.5120;1.1629;3.6481;0.4014;-0.2094;0.2094;
24.6960;1.5120;1.1629;3.6481;0.4014;-0.2094;0.2094;
24.7000;1.5120;1.1629;3.6481;0.4014;-0.2094;0.2094;
24.7010;1.5120;1.1629;3.6481;-0.0698;-0.1571;-0.0174;
24.7030;1.3903;2.0777;-0.2264;-0.0698;-0.1571;-0.0174;
24.7620;1.3903;2.0777;-0.2264;-0.0698;-0.1571;-0.0174;
24.7660;1.3903;2.0777;-0.2264;-0.0698;-0.1571;-0.0174;
24.7680;1.3903;2.0777;-0.2264;-0.4887;-0.0524;-0.1920;
24.7690;0.6790;-0.6285;-3.5797;-0.4887;-0.0524;-0.1920;
24.8280;0.6790;-0.6285;-3.5797;-0.4887;-0.0524;-0.1920;
24.8330;0.6790;-0.6285;-3.5797;-0.4887;-0.0524;-0.1920;
24.8340;0.6790;-0.6285;-3.5797;-0.2792;0.0698;1.5009;
24.8350;0.8658;-1.1887;-0.3939;-0.2792;0.0698;1.5009;
24.8940;0.8658;-1.1887;-0.3939;-0.2792;0.0698;1.5009;
24.8990;0.8658;-1.1887;-0.3939;-0.2792;0.0698;1.5009;
24.9000;0.8658;-1.1887;-0.3939;0.1222;0.2967;2.7226;
24.9010;-2.8950;-0.4144;-4.1447;0.1222;0.2967;2.7226;
24.9600;-2.8950;-0.4144;-4.1447;0.1222;0.2967;2.7226;
24.9640;-2.8950;-0.4144;-4.1447;0.1222;0.2967;2.7226;
24.9660;-2.8950;-0.4144;-4.1447;0.2094;0.3316;2.7575;
24.9670;-8.6985;2.7256;11.1441;0.2094;0.3316;2.7575;
25.1250;-8.6985;2.7256;11.1441;0.2094;0.3316;2.7575;
25.1260;-8.6985;2.7256;11.1441;-0.2269;0.2094;-0.4189;
25.1270;-8.6985;2.7256;11.1441;-0.2269;0.2094;-0.4189;
25.1280;-8.6985;2.7256;11.1441;-0.2269;0.2094;-0.4189;
25.1290;2.9209;-5.4201;5.7926;-0.2269;0.2094;-0.4189;
25.1300;2.9209;-5.4201;5.7926;-0.2269;0.2094;-0.4189;
25.1320;2.9209;-5.4201;5.7926;-0.2269;0.2094;-0.4189;
25.1330;2.9209;-5.4201;5.7926;-0.2269;0.2094;-0.4189;
25.1380;2.9209;-5.4201;5.7926;-0.2269;0.2094;-0.4189;
25.1610;2.9209;-5.4201;5.7926;-0.2269;0.2094;-0.4189;
25.1630;2.9209;-5.4201;5.7926;-0.2269;0.2094;-0.4189;
25.1640;2.9209;-5.4201;5.7926;-0.1571;0.1571;-0.5410;
25.1660;2.8687;-2.2458;1.5292;-0.1571;0.1571;-0.5410;
25.2240;2.8687;-2.2458;1.5292;-0.1571;0.1571;-0.5410;
25.2280;2.8687;-2.2458;1.5292;-0.1571;0.1571;-0.5410;
25.2290;2.8687;-2.2458;1.5292;0.1745;0.0698;-0.7854;
25.2300;1.2177;2.0454;-2.0205;0.1745;0.0698;-0.7854;
25.2900;1.2177;2.0454;-2.0205;0.1745;0.0698;-0.7854;
25.2940;1.2177;2.0454;-2.0205;0.1745;0.0698;-0.7854;
25.2950;1.2177;2.0454;-2.0205;0.1396;0.0524;-3.5429;
25.2960;7.1105;4.7689;-1.3370;0.1396;0.0524;-3.5429;
25.3560;7.1105;4.7689;-1.3370;0.1396;0.0524;-3.5429;
25.3600;7.1105;4.7689;-1.3370;0.1396;0.0524;-3.5429;
25.3610;7.1105;4.7689;-1.3370;0.0174;-0.0349;-4.7821;
25.3620;7.7612;4.0578;-2.0576;0.0174;-0.0349;-4.7821;
25.4220;7.7612;4.0578;-2.0576;0.0174;-0.0349;-4.7821;
25.4290;7.7612;4.0578;-2.0576;0.0174;-0.0349;-4.7821;
25.4290;7.7612;4.0578;-2.0576;-0.1745;-0.2792;-4.7297;
25.4300;-13.8362;-1.0497;4.6800;-0.1745;-0.2792;-4.7297;
25.4870;-13.8362;-1.0497;4.6800;-0.1745;-0.2792;-4.7297;
25.4920;-13.8362;-1.0497;4.6800;-0.1745;-0.2792;-4.7297;
25.4930;-13.8362;-1.0497;4.6800;-0.2443;-0.5759;-2.1816;
25.4930;2.9818;0.7017;-1.5461;-0.2443;-0.5759;-2.1816;
25.5530;2.9818;0.7017;-1.5461;-0.2443;-0.5759;-2.1816;
25.5580;2.9818;0.7017;-1.5461;-0.2443;-0.5759;-2.1816;
25.5590;2.9818;0.7017;-1.5461;-0.1920;-0.8203;-0.8377;
25.5590;2.3429;-8.2773;4.5929;-0.1920;-0.8203;-0.8377;
25.6190;2.3429;-8.2773;4.5929;-0.1920;-0.8203;-0.8377;
25.6240;2.3429;-8.2773;4.5929;-0.1920;-0.8203;-0.8377;
25.6250;2.3429;-8.2773;4.5929;0.0524;-0.8377;-0.6632;
25.6250;5.5724;4.0579;-5.5904;0.0524;-0.8377;-0.6632;
25.6860;5.5724;4.0579;-5.5904;0.0524;-0.8377;-0.6632;
25.6900;5.5724;4.0579;-5.5904;0.0524;-0.8377;-0.6632;
25.6910;5.5724;4.0579;-5.5904;0.5236;-0.5585;-0.1396;
25.6910;0.2275;-0.6725;-1.3824;0.5236;-0.5585;-0.1396;
25.7510;0.2275;-0.6725;-1.3824;0.5236;-0.5585;-0.1396;
25.7560;0.2275;-0.6725;-1.3824;0.5236;-0.5585;-0.1396;
25.7570;0.2275;-0.6725;-1.3824;0.4887;-0.2792;0.0000;
25.7570;-2.4349;1.9162;3.8257;0.4887;-0.2792;0.0000;
25.8180;-2.4349;1.9162;3.8257;0.4887;-0.2792;0.0000;
25.8220;-2.4349;1.9162;3.8257;0.4887;-0.2792;0.0000;
25.8230;-2.4349;1.9162;3.8257;0.0349;-0.1396;-0.1047;
25.8230;-0.4569;1.4318;-1.3087;0.0349;-0.1396;-0.1047;
25.8830;-0.4569;1.4318;-1.3087;0.0349;-0.1396;-0.1047;
25.8880;-0.4569;1.4318;-1.3087;0.0349;-0.1396;-0.1047;
25.8890;-0.4569;1.4318;-1.3087;-0.5585;0.0174;-0.2792;
25.8890;0.7581;1.8723;-0.9463;-0.5585;0.0174;-0.2792;
25.9490;0.7581;1.8723;-0.9463;-0.5585;0.0174;-0.2792;
25.9540;0.7581;1.8723;-0.9463;-0.5585;0.0174;-0.2792;
25.9550;0.7581;1.8723;-0.9463;-0.6108;0.2967;-0.1396;
25.9560;0.7903;0.1585;-1.4913;-0.6108;0.2967;-0.1396;
26.0160;0.7903;0.1585;-1.4913;-0.6108;0.2967;-0.1396;
26.0280;0.7903;0.1585;-1.4913;-0.6108;0.2967;-0.1396;
26.0290;0.7903;0.1585;-1.4913;-0.3141;0.4712;1.0646;
26.0300;0.0527;-2.0218;-0.9973;-0.3141;0.4712;1.0646;
26.0840;0.0527;-2.0218;-0.9973;-0.3141;0.4712;1.0646;
26.0860;0.0527;-2.0218;-0.9973;-0.3141;0.4712;1.0646;
26.0870;0.0527;-2.0218;-0.9973;0.0698;0.4189;3.1066;
26.0870;-1.1742;-0.4615;-1.0736;0.0698;0.4189;3.1066;
26.1490;-1.1742;-0.4615;-1.0736;0.0698;0.4189;3.1066;
26.1520;-1.1742;-0.4615;-1.0736;0.0698;0.4189;3.1066;
26.1530;-1.1742;-0.4615;-1.0736;0.0698;0.2269;2.9670;
26.1530;-5.7182;3.7070;4.2729;0.0698;0.2269;2.9670;
26.2150;-5.7182;3.7070;4.2729;0.0698;0.2269;2.9670;
26.2180;-5.7182;3.7070;4.2729;0.0698;0.2269;2.9670;
26.2190;-5.7182;3.7070;4.2729;-0.0698;0.1571;1.8500;
26.2190;-5.9692;-5.6581;-3.7119;-0.0698;0.1571;1.8500;
26.2850;-5.9692;-5.6581;-3.7119;-0.0698;0.1571;1.8500;
26.2860;-5.9692;-5.6581;-3.7119;-0.1745;0.1745;-0.2967;
26.2910;1.8514;-6.2869;6.4694;-0.1745;0.1745;-0.2967;
26.2920;1.8514;-6.2869;6.4694;-0.1745;0.1745;-0.2967;
26.3450;1.8514;-6.2869;6.4694;-0.1745;0.1745;-0.2967;
26.3500;1.8514;-6.2869;6.4694;-0.1745;0.1745;-0.2967;
26.3510;1.8514;-6.2869;6.4694;0.0524;0.1571;-0.4887;
26.3520;2.0121;2.4915;-0.6249;0.0524;0.1571;-0.4887;
26.4120;2.0121;2.4915;-0.6249;0.0524;0.1571;-0.4887;
26.4160;2.0121;2.4915;-0.6249;0.0524;0.1571;-0.4887;
26.4170;2.0121;2.4915;-0.6249;0.2618;0.0524;-4.4854;
26.4170;4.0728;1.6158;-2.2643;0.2618;0.0524;-4.4854;
26.4780;4.0728;1.6158;-2.2643;0.2618;0.0524;-4.4854;
26.4820;4.0728;1.6158;-2.2643;0.2618;0.0524;-4.4854;
26.4830;4.0728;1.6158;-2.2643;0.2269;-0.0349;-4.4505;
26.4840;8.6214;3.1801;-3.7791;0.2269;-0.0349;-4.4505;
26.5440;8.6214;3.1801;-3.7791;0.2269;-0.0349;-4.4505;
26.5490;8.6214;3.1801;-3.7791;0.2269;-0.0349;-4.4505;
26.5490;8.6214;3.1801;-3.7791;0.0349;-0.1222;-4.3632;
26.5500;-6.2174;-3.9001;15.2729;0.0349;-0.1222;-4.3632;
26.6180;-6.2174;-3.9001;15.2729;0.0349;-0.1222;-4.3632;
26.6210;-6.2174;-3.9001;15.2729;0.0349;-0.1222;-4.3632;
26.6240;-6.2174;-3.9001;15.2729;0.0000;-0.1571;0.2792;
26.6260;-6.4081;2.2706;5.6502;0.0000;-0.1571;0.2792;
26.6810;-6.4081;2.2706;5.6502;0.0000;-0.1571;0.2792;
26.6830;-6.4081;2.2706;5.6502;0.0000;-0.1571;0.2792;
26.6840;-6.4081;2.2706;5.6502;0.0000;-0.1745;3.1415;
26.6860;0.1822;-2.5404;0.1691;0.0000;-0.1745;3.1415;
26.7420;0.1822;-2.5404;0.1691;0.0000;-0.1745;3.1415;
26.7470;0.1822;-2.5404;0.1691;0.0000;-0.1745;3.1415;
26.7480;0.1822;-2.5404;0.1691;-0.0174;-0.1396;3.2462;
26.7500;6.1080;-7.1946;-1.4432;-0.0174;-0.1396;3.2462;
26.8090;6.1080;-7.1946;-1.4432;-0.0174;-0.1396;3.2462;
26.8130;6.1080;-7.1946;-1.4432;-0.0174;-0.1396;3.2462;
26.8140;6.1080;-7.1946;-1.4432;-0.1745;-0.0872;-0.6806;
26.8150;3.0799;5.3489;-3.7494;-0.1745;-0.0872;-0.6806;
26.8740;3.0799;5.3489;-3.7494;-0.1745;-0.0872;-0.6806;
26.8790;3.0799;5.3489;-3.7494;-0.1745;-0.0872;-0.6806;
26.8800;3.0799;5.3489;-3.7494;-0.1222;-0.0698;-2.9495;
26.8810;0.2267;-0.7725;-0.5368;-0.1222;-0.0698;-2.9495;
26.9400;0.2267;-0.7725;-0.5368;-0.1222;-0.0698;-2.9495;
26.9440;0.2267;-0.7725;-0.5368;-0.1222;-0.0698;-2.9495;
26.9450;0.2267;-0.7725;-0.5368;-0.1222;-0.0872;-3.1240;
26.9460;-1.1408;1.9885;3.0358;-0.1222;-0.0872;-3.1240;
27.0060;-1.1408;1.9885;3.0358;-0.1222;-0.0872;-3.1240;
27.0190;-1.1408;1.9885;3.0358;-0.1222;-0.0872;-3.1240;
27.0200;-1.1408;1.9885;3.0358;-0.1222;-0.1047;-1.1170;
27.0210;0.0089;1.5127;1.6795;-0.1222;-0.1047;-1.1170;
27.0720;0.0089;1.5127;1.6795;-0.1222;-0.1047;-1.1170;
27.0760;0.0089;1.5127;1.6795;-0.1222;-0.1047;-1.1170;
27.0770;0.0089;1.5127;1.6795;-0.0698;-0.1047;1.5009;
27.0780;0.8188;0.1094;-2.2425;-0.0698;-0.1047;1.5009;
27.1380;0.8188;0.1094;-2.2425;-0.0698;-0.1047;1.5009;
27.1420;0.8188;0.1094;-2.2425;-0.0698;-0.1047;1.5009;
27.1430;0.8188;0.1094;-2.2425;-0.0349;0.0000;2.4434;
27.1440;0.5242;-0.9365;-1.0487;-0.0349;0.0000;2.4434;
27.2040;0.5242;-0.9365;-1.0487;-0.0349;0.0000;2.4434;
27.2080;0.5242;-0.9365;-1.0487;-0.0349;0.0000;2.4434;
27.2090;0.5242;-0.9365;-1.0487;0.0174;0.1571;2.4957;
27.2100;-1.2900;-0.3339;-1.0977;0.0174;0.1571;2.4957;
27.2700;-1.2900;-0.3339;-1.0977;0.0174;0.1571;2.4957;
27.2750;-1.2900;-0.3339;-1.0977;0.0174;0.1571;2.4957;
27.2760;-1.2900;-0.3339;-1.0977;0.0000;0.2269;1.6755;
27.2770;-9.1370;2.1293;7.7585;0.0000;0.2269;1.6755;
27.3360;-9.1370;2.1293;7.7585;0.0000;0.2269;1.6755;
27.3400;-9.1370;2.1293;7.7585;0.0000;0.2269;1.6755;
27.3410;-9.1370;2.1293;7.7585;-0.2269;0.2094;-0.2094;
27.3420;-3.2659;-6.1395;-2.0466;-0.2269;0.2094;-0.2094;
27.4040;-3.2659;-6.1395;-2.0466;-0.2269;0.2094;-0.2094;
27.4060;-3.2659;-6.1395;-2.0466;-0.2269;0.2094;-0.2094;
27.4070;-3.2659;-6.1395;-2.0466;-0.1571;0.1047;-0.3490;
27.4080;3.6074;-6.6781;4.6992;-0.1571;0.1047;-0.3490;
27.4680;3.6074;-6.6781;4.6992;-0.1571;0.1047;-0.3490;
27.4720;3.6074;-6.6781;4.6992;-0.1571;0.1047;-0.3490;
27.4730;3.6074;-6.6781;4.6992;0.0000;0.0000;-0.5759;
27.4740;0.4560;3.1672;-0.0521;0.0000;0.0000;-0.5759;
27.5330;0.4560;3.1672;-0.0521;0.0000;0.0000;-0.5759;
27.5380;0.4560;3.1672;-0.0521;0.0000;0.0000;-0.5759;
27.5390;0.4560;3.1672;-0.0521;0.2269;-0.0174;-2.0071;
27.5390;3.6940;1.4177;-1.9632;0.2269;-0.0174;-2.0071;
27.5990;3.6940;1.4177;-1.9632;0.2269;-0.0174;-2.0071;
27.6050;3.6940;1.4177;-1.9632;0.2269;-0.0174;-2.0071;
27.6050;3.6940;1.4177;-1.9632;0.2269;-0.0349;-4.5203;
27.6060;5.9386;4.1384;-2.5377;0.2269;-0.0349;-4.5203;
27.6660;5.9386;4.1384;-2.5377;0.2269;-0.0349;-4.5203;
27.6700;5.9386;4.1384;-2.5377;0.2269;-0.0349;-4.5203;
27.6710;5.9386;4.1384;-2.5377;0.1222;-0.1047;-4.4330;
27.6710;3.5357;0.2823;1.1604;0.1222;-0.1047;-4.4330;
27.7320;3.5357;0.2823;1.1604;0.1222;-0.1047;-4.4330;
27.7360;3.5357;0.2823;1.1604;0.1222;-0.1047;-4.4330;
27.7370;3.5357;0.2823;1.1604;0.0000;-0.2094;-4.4330;
27.7370;-14.5826;0.9962;3.1867;0.0000;-0.2094;-4.4330;
27.7980;-14.5826;0.9962;3.1867;0.0000;-0.2094;-4.4330;
27.8020;-14.5826;0.9962;3.1867;0.0000;-0.2094;-4.4330;
27.8030;-14.5826;0.9962;3.1867;0.0698;-0.2094;2.9321;
27.8030;-1.4800;-5.1290;-1.4366;0.0698;-0.2094;2.9321;
27.8630;-1.4800;-5.1290;-1.4366;0.0698;-0.2094;2.9321;
27.8680;-1.4800;-5.1290;-1.4366;0.0698;-0.2094;2.9321;
27.8690;-1.4800;-5.1290;-1.4366;-0.0698;-0.1571;1.3613;
27.8690;9.6436;-5.3978;-1.0747;-0.0698;-0.1571;1.3613;
27.9290;9.6436;-5.3978;-1.0747;-0.0698;-0.1571;1.3613;
27.9340;9.6436;-5.3978;-1.0747;-0.0698;-0.1571;1.3613;
27.9350;9.6436;-5.3978;-1.0747;0.0524;-0.0174;0.4363;
27.9350;5.6640;4.3192;-4.1027;0.0524;-0.0174;0.4363;
27.9960;5.6640;4.3192;-4.1027;0.0524;-0.0174;0.4363;
28.0000;5.6640;4.3192;-4.1027;0.0524;-0.0174;0.4363;
28.0020;5.6640;4.3192;-4.1027;0.0000;0.0349;-2.4085;
28.0020;0.4769;-1.0402;-6.9367;0.0000;0.0349;-2.4085;
28.0610;0.4769;-1.0402;-6.9367;0.0000;0.0349;-2.4085;
28.0660;0.4769;-1.0402;-6.9367;0.0000;0.0349;-2.4085;
28.0670;0.4769;-1.0402;-6.9367;0.0000;-0.0524;-0.9250;
28.0680;-2.7288;2.4914;1.1169;0.0000;-0.0524;-0.9250;
28.1270;-2.7288;2.4914;1.1169;0.0000;-0.0524;-0.9250;
28.1320;-2.7288;2.4914;1.1169;0.0000;-0.0524;-0.9250;
28.1330;-2.7288;2.4914;1.1169;0.0349;-0.1571;1.5184;
28.1330;-2.6464;2.9382;1.4717;0.0349;-0.1571;1.5184;
28.1930;-2.6464;2.9382;1.4717;0.0349;-0.1571;1.5184;
28.1980;-2.6464;2.9382;1.4717;0.0349;-0.1571;1.5184;
28.1990;-2.6464;2.9382;1.4717;-0.1047;-0.1571;2.2689;
28.1990;0.0037;2.1900;0.3081;-0.1047;-0.1571;2.2689;
28.2600;0.0037;2.1900;0.3081;-0.1047;-0.1571;2.2689;
28.2640;0.0037;2.1900;0.3081;-0.1047;-0.1571;2.2689;
28.2650;0.0037;2.1900;0.3081;-0.0872;0.0174;2.3561;
28.2650;0.5040;-1.8558;-1.1824;-0.0872;0.0174;2.3561;
28.3250;0.5040;-1.8558;-1.1824;-0.0872;0.0174;2.3561;
28.3300;0.5040;-1.8558;-1.1824;-0.0872;0.0174;2.3561;
28.3310;0.5040;-1.8558;-1.1824;-0.1920;0.0524;0.4887;
28.3310;-1.8613;-0.5271;-1.9442;-0.1920;0.0524;0.4887;
28.3910;-1.8613;-0.5271;-1.9442;-0.1920;0.0524;0.4887;
28.3960;-1.8613;-0.5271;-1.9442;-0.1920;0.0524;0.4887;
28.3970;-1.8613;-0.5271;-1.9442;-0.1396;0.0000;-0.6458;
28.3970;-3.9909;1.8586;5.9627;-0.1396;0.0000;-0.6458;
28.4580;-3.9909;1.8586;5.9627;-0.1396;0.0000;-0.6458;
28.4620;-3.9909;1.8586;5.9627;-0.1396;0.0000;-0.6458;
28.4630;-3.9909;1.8586;5.9627;0.0000;0.0524;-0.7679;
28.4630;-4.6672;-3.8999;-3.6026;0.0000;0.0524;-0.7679;
28.5230;-4.6672;-3.8999;-3.6026;0.0000;0.0524;-0.7679;
28.5280;-4.6672;-3.8999;-3.6026;0.0000;0.0524;-0.7679;
28.5290;-4.6672;-3.8999;-3.6026;0.0349;0.1222;-0.6806;
28.5290;2.7077;-7.8073;5.0506;0.0349;0.1222;-0.6806;
28.5890;2.7077;-7.8073;5.0506;0.0349;0.1222;-0.6806;
28.5950;2.7077;-7.8073;5.0506;0.0349;0.1222;-0.6806;
28.5950;2.7077;-7.8073;5.0506;0.1571;0.1571;-0.6632;
28.5960;0.0687;2.0437;0.7585;0.1571;0.1571;-0.6632;
28.6550;0.0687;2.0437;0.7585;0.1571;0.1571;-0.6632;
28.6600;0.0687;2.0437;0.7585;0.1571;0.1571;-0.6632;
28.6610;0.0687;2.0437;0.7585;0.2094;0.1571;-3.3858;
28.6610;2.2751;1.4846;-3.8153;0.2094;0.1571;-3.3858;
28.7220;2.2751;1.4846;-3.8153;0.2094;0.1571;-3.3858;
28.7260;2.2751;1.4846;-3.8153;0.2094;0.1571;-3.3858;
28.7270;2.2751;1.4846;-3.8153;0.2443;0.0174;-4.6424;
28.7270;5.4805;3.0620;-1.7443;0.2443;0.0174;-4.6424;
28.7870;5.4805;3.0620;-1.7443;0.2443;0.0174;-4.6424;
28.7920;5.4805;3.0620;-1.7443;0.2443;0.0174;-4.6424;
28.7930;5.4805;3.0620;-1.7443;0.1047;-0.1047;-4.5552;
28.7930;6.5522;1.1822;-0.1467;0.1047;-0.1047;-4.5552;
28.8530;6.5522;1.1822;-0.1467;0.1047;-0.1047;-4.5552;
28.8580;6.5522;1.1822;-0.1467;0.1047;-0.1047;-4.5552;
28.8590;6.5522;1.1822;-0.1467;-0.0524;-0.2269;-1.8849;
28.8590;-13.6994;-0.6348;-0.7139;-0.0524;-0.2269;-1.8849;
28.9190;-13.6994;-0.6348;-0.7139;-0.0524;-0.2269;-1.8849;
28.9240;-13.6994;-0.6348;-0.7139;-0.0524;-0.2269;-1.8849;
28.9250;-13.6994;-0.6348;-0.7139;0.0000;-0.2094;2.0769;
28.9250;-0.9066;2.1466;1.2084;0.0000;-0.2094;2.0769;
28.9850;-0.9066;2.1466;1.2084;0.0000;-0.2094;2.0769;
28.9900;-0.9066;2.1466;1.2084;0.0000;-0.2094;2.0769;
28.9910;-0.9066;2.1466;1.2084;-0.1396;-0.1571;1.1693;
28.9910;7.5740;-8.1314;0.1615;-0.1396;-0.1571;1.1693;
29.0510;7.5740;-8.1314;0.1615;-0.1396;-0.1571;1.1693;
29.0560;7.5740;-8.1314;0.1615;-0.1396;-0.1571;1.1693;
29.0570;7.5740;-8.1314;0.1615;0.0000;0.0174;0.4014;
29.0570;7.9155;6.0640;-5.4342;0.0000;0.0174;0.4014;
29.1180;7.9155;6.0640;-5.4342;0.0000;0.0174;0.4014;
29.1260;7.9155;6.0640;-5.4342;0.0000;0.0174;0.4014;
29.1270;7.9155;6.0640;-5.4342;0.1396;0.3665;-1.4660;
29.1270;1.6586;-0.4943;-0.1490;0.1396;0.3665;-1.4660;
29.1840;1.6586;-0.4943;-0.1490;0.1396;0.3665;-1.4660;
29.1880;1.6586;-0.4943;-0.1490;0.1396;0.3665;-1.4660;
29.1890;1.6586;-0.4943;-0.1490;0.1571;0.4014;-0.5585;
29.1900;-2.3803;0.3619;2.3353;0.1571;0.4014;-0.5585;
29.2490;-2.3803;0.3619;2.3353;0.1571;0.4014;-0.5585;
29.2540;-2.3803;0.3619;2.3353;0.1571;0.4014;-0.5585;
29.2550;-2.3803;0.3619;2.3353;0.1745;0.2443;1.1344;
29.2550;-1.6035;2.5666;0.7656;0.1745;0.2443;1.1344;
29.3150;-1.6035;2.5666;0.7656;0.1745;0.2443;1.1344;
29.3200;-1.6035;2.5666;0.7656;0.1745;0.2443;1.1344;
29.3210;-1.6035;2.5666;0.7656;0.0349;0.0872;2.9495;
29.3210;0.1092;1.1792;-0.2407;0.0349;0.0872;2.9495;
29.3820;0.1092;1.1792;-0.2407;0.0349;0.0872;2.9495;
29.3870;0.1092;1.1792;-0.2407;0.0349;0.0872;2.9495;
29.3880;0.1092;1.1792;-0.2407;-0.1222;0.2792;3.0368;
29.3890;1.0196;-1.8242;-1.6863;-0.1222;0.2792;3.0368;
29.4480;1.0196;-1.8242;-1.6863;-0.1222;0.2792;3.0368;
29.4520;1.0196;-1.8242;-1.6863;-0.1222;0.2792;3.0368;
29.4530;1.0196;-1.8242;-1.6863;-0.1571;0.4712;2.0071;
29.4550;-1.1478;0.4454;-1.4067;-0.1571;0.4712;2.0071;
29.5140;-1.1478;0.4454;-1.4067;-0.1571;0.4712;2.0071;
29.5180;-1.1478;0.4454;-1.4067;-0.1571;0.4712;2.0071;
29.5190;-1.1478;0.4454;-1.4067;-0.2967;0.5061;-0.1920;
29.5200;-4.0258;0.7726;-1.7783;-0.2967;0.5061;-0.1920;
29.5800;-4.0258;0.7726;-1.7783;-0.2967;0.5061;-0.1920;
29.5840;-4.0258;0.7726;-1.7783;-0.2967;0.5061;-0.1920;
29.5850;-4.0258;0.7726;-1.7783;-0.2094;0.3840;-0.3665;
29.5860;-3.2121;0.0833;7.3672;-0.2094;0.3840;-0.3665;
29.6460;-3.2121;0.0833;7.3672;-0.2094;0.3840;-0.3665;
29.6500;-3.2121;0.0833;7.3672;-0.2094;0.3840;-0.3665;
29.6510;-3.2121;0.0833;7.3672;-0.1920;0.2443;-0.4014;
29.6520;0.0910;-9.0528;-2.0219;-0.1920;0.2443;-0.4014;
29.7110;0.0910;-9.0528;-2.0219;-0.1920;0.2443;-0.4014;
29.7160;0.0910;-9.0528;-2.0219;-0.1920;0.2443;-0.4014;
29.7170;0.0910;-9.0528;-2.0219;-0.0872;0.1222;-0.4538;
29.7170;3.8594;0.3325;1.2047;-0.0872;0.1222;-0.4538;
29.7770;3.8594;0.3325;1.2047;-0.0872;0.1222;-0.4538;
29.7820;3.8594;0.3325;1.2047;-0.0872;0.1222;-0.4538;
29.7830;3.8594;0.3325;1.2047;0.0872;0.1047;-0.4887;
29.7830;-1.5414;4.3082;-0.9097;0.0872;0.1047;-0.4887;
29.8430;-1.5414;4.3082;-0.9097;0.0872;0.1047;-0.4887;
29.8480;-1.5414;4.3082;-0.9097;0.0872;0.1047;-0.4887;
29.8490;-1.5414;4.3082;-0.9097;0.2618;0.1571;-1.5358;
29.8490;4.7934;2.4099;-0.8695;0.2618;0.1571;-1.5358;
29.9090;4.7934;2.4099;-0.8695;0.2618;0.1571;-1.5358;
29.9140;4.7934;2.4099;-0.8695;0.2618;0.1571;-1.5358;
29.9150;4.7934;2.4099;-0.8695;0.2094;0.0698;-3.9094;
29.9150;7.7482;2.8479;-3.1488;0.2094;0.0698;-3.9094;
29.9760;7.7482;2.8479;-3.1488;0.2094;0.0698;-3.9094;
29.9800;7.7482;2.8479;-3.1488;0.2094;0.0698;-3.9094;
29.9810;7.7482;2.8479;-3.1488;0.0698;-0.1745;-3.9443;
29.9820;-9.1752;-3.9872;13.2423;0.0698;-0.1745;-3.9443;
30.0420;-9.1752;-3.9872;13.2423;0.0698;-0.1745;-3.9443;
30.0460;-9.1752;-3.9872;13.2423;0.0698;-0.1745;-3.9443;
30.0480;-9.1752;-3.9872;13.2423;-0.2269;-0.6283;-3.0368;
30.0530;-5.4288;4.1499;0.2076;-0.2269;-0.6283;-3.0368;
30.1080;-5.4288;4.1499;0.2076;-0.2269;-0.6283;-3.0368;
30.1310;-5.4288;4.1499;0.2076;-0.2269;-0.6283;-3.0368;
30.1400;-5.4288;4.1499;0.2076;-0.2618;-0.7505;-0.6458;
30.1430;-0.1477;-7.9059;-6.0593;-0.2618;-0.7505;-0.6458;
30.1760;-0.1477;-7.9059;-6.0593;-0.2618;-0.7505;-0.6458;
30.1950;-0.1477;-7.9059;-6.0593;-0.2618;-0.7505;-0.6458;
30.1980;-0.1477;-7.9059;-6.0593;-0.0872;-0.5934;-0.2792;
30.2000;9.9074;2.3523;-6.1297;-0.0872;-0.5934;-0.2792;
30.2700;9.9074;2.3523;-6.1297;-0.0872;-0.5934;-0.2792;
30.2710;9.9074;2.3523;-6.1297;-0.0872;-0.5934;-0.2792;
30.2720;9.9074;2.3523;-6.1297;0.2269;-0.1571;0.2967;
30.2730;1.4478;1.1991;-1.4077;0.2269;-0.1571;0.2967;
30.3110;1.4478;1.1991;-1.4077;0.2269;-0.1571;0.2967;
30.3120;1.4478;1.1991;-1.4077;0.2269;-0.1571;0.2967;
30.3130;1.4478;1.1991;-1.4077;0.3141;0.1920;0.5934;
30.3140;-2.0822;-0.3964;-7.9757;0.3141;0.1920;0.5934;
30.3900;-2.0822;-0.3964;-7.9757;0.3141;0.1920;0.5934;
30.3910;-2.0822;-0.3964;-7.9757;0.1571;0.2094;0.6283;
30.3920;-3.3996;2.7708;4.6966;0.1571;0.2094;0.6283;
30.3930;-3.3996;2.7708;4.6966;0.1571;0.2094;0.6283;
30.4400;-3.3996;2.7708;4.6966;0.1571;0.2094;0.6283;
30.4430;-3.3996;2.7708;4.6966;0.1571;0.2094;0.6283;
30.4440;-3.3996;2.7708;4.6966;0.1047;0.0349;2.6354;
30.4450;0.2430;1.7115;1.6195;0.1047;0.0349;2.6354;
30.5210;0.2430;1.7115;1.6195;0.1047;0.0349;2.6354;
30.5220;0.2430;1.7115;1.6195;-0.1396;-0.0174;2.6179;
30.5230;0.1604;-0.0755;-0.8012;-0.1396;-0.0174;2.6179;
30.5240;0.1604;-0.0755;-0.8012;-0.1396;-0.0174;2.6179;
30.5700;0.1604;-0.0755;-0.8012;-0.1396;-0.0174;2.6179;
30.5740;0.1604;-0.0755;-0.8012;-0.1396;-0.0174;2.6179;
30.5750;0.1604;-0.0755;-0.8012;-0.1396;0.1047;2.6179;
30.5760;-1.2394;-0.4893;-1.0499;-0.1396;0.1047;2.6179;
30.6400;-1.2394;-0.4893;-1.0499;-0.1396;0.1047;2.6179;
30.6410;-1.2394;-0.4893;-1.0499;-0.1396;0.1047;2.6179;
30.6420;-1.2394;-0.4893;-1.0499;-0.3141;0.1745;0.5759;
30.6430;-2.4160;1.0142;-2.3822;-0.3141;0.1745;0.5759;
30.7020;-2.4160;1.0142;-2.3822;-0.3141;0.1745;0.5759;
30.7060;-2.4160;1.0142;-2.3822;-0.3141;0.1745;0.5759;
30.7070;-2.4160;1.0142;-2.3822;-0.1396;0.2792;-0.3490;
30.7080;-4.0463;1.8117;5.8733;-0.1396;0.2792;-0.3490;
30.7800;-4.0463;1.8117;5.8733;-0.1396;0.2792;-0.3490;
30.7810;-4.0463;1.8117;5.8733;-0.1396;0.2792;-0.3490;
30.7820;-4.0463;1.8117;5.8733;-0.0524;0.2967;-0.3840;
30.7830;-2.8747;-3.7823;-1.8464;-0.0524;0.2967;-0.3840;
30.8350;-2.8747;-3.7823;-1.8464;-0.0524;0.2967;-0.3840;
30.8380;-2.8747;-3.7823;-1.8464;-0.0524;0.2967;-0.3840;
30.8400;-2.8747;-3.7823;-1.8464;0.0174;0.2792;-0.4538;
30.8400;2.9307;-2.6323;4.1901;0.0174;0.2792;-0.4538;
30.9050;2.9307;-2.6323;4.1901;0.0174;0.2792;-0.4538;
30.9070;2.9307;-2.6323;4.1901;0.0174;0.2792;-0.4538;
30.9080;2.9307;-2.6323;4.1901;0.1571;0.2443;-0.5236;
30.9090;-0.2726;1.9057;-0.7064;0.1571;0.2443;-0.5236;
30.9790;-0.2726;1.9057;-0.7064;0.1571;0.2443;-0.5236;
30.9860;-0.2726;1.9057;-0.7064;0.1571;0.2443;-0.5236;
30.9880;-0.2726;1.9057;-0.7064;0.2094;0.2269;-1.8151;
30.9890;4.2013;2.5539;-1.1590;0.2094;0.2269;-1.8151;
31.0320;4.2013;2.5539;-1.1590;0.2094;0.2269;-1.8151;
31.0360;4.2013;2.5539;-1.1590;0.2094;0.2269;-1.8151;
31.0370;4.2013;2.5539;-1.1590;0.1396;0.1222;-4.2236;
31.0380;8.3997;4.5889;-2.9778;0.1396;0.1222;-4.2236;
31.0980;8.3997;4.5889;-2.9778;0.1396;0.1222;-4.2236;
31.1020;8.3997;4.5889;-2.9778;0.1396;0.1222;-4.2236;
31.1030;8.3997;4.5889;-2.9778;-0.0698;-0.0872;-4.2061;
31.1040;-8.7230;-4.5806;15.8602;-0.0698;-0.0872;-4.2061;
31.1640;-8.7230;-4.5806;15.8602;-0.0698;-0.0872;-4.2061;
31.1690;-8.7230;-4.5806;15.8602;-0.0698;-0.0872;-4.2061;
31.1700;-8.7230;-4.5806;15.8602;-0.0349;-0.1920;-0.5410;
31.1720;-10.1089;2.0399;4.4255;-0.0349;-0.1920;-0.5410;
31.2300;-10.1089;2.0399;4.4255;-0.0349;-0.1920;-0.5410;
31.2350;-10.1089;2.0399;4.4255;-0.0349;-0.1920;-0.5410;
31.2360;-10.1089;2.0399;4.4255;0.0174;-0.1571;2.3387;
31.2370;-3.5815;-6.8004;-0.8270;0.0174;-0.1571;2.3387;
31.2960;-3.5815;-6.8004;-0.8270;0.0174;-0.1571;2.3387;
31.3000;-3.5815;-6.8004;-0.8270;0.0174;-0.1571;2.3387;
31.3010;-3.5815;-6.8004;-0.8270;-0.0698;-0.0872;0.5585;
31.3020;9.6019;2.2096;-2.9380;-0.0698;-0.0872;0.5585;
31.3630;9.6019;2.2096;-2.9380;-0.0698;-0.0872;0.5585;
31.3670;9.6019;2.2096;-2.9380;-0.0698;-0.0872;0.5585;
31.3680;9.6019;2.2096;-2.9380;0.1396;0.0349;-1.6580;
31.3680;1.4049;-0.1648;-0.7831;0.1396;0.0349;-1.6580;
31.4280;1.4049;-0.1648;-0.7831;0.1396;0.0349;-1.6580;
31.4320;1.4049;-0.1648;-0.7831;0.1396;0.0349;-1.6580;
31.4330;1.4049;-0.1648;-0.7831;0.1920;0.0698;-2.4085;
31.4340;0.2275;-0.3951;-2.1469;0.1920;0.0698;-2.4085;
31.4940;0.2275;-0.3951;-2.1469;0.1920;0.0698;-2.4085;
31.4990;0.2275;-0.3951;-2.1469;0.1920;0.0698;-2.4085;
31.5000;0.2275;-0.3951;-2.1469;0.2443;0.0698;-0.0524;
31.5020;-2.6773;1.3990;4.4065;0.2443;0.0698;-0.0524;
31.5600;-2.6773;1.3990;4.4065;0.2443;0.0698;-0.0524;
31.5640;-2.6773;1.3990;4.4065;0.2443;0.0698;-0.0524;
31.5650;-2.6773;1.3990;4.4065;-0.2967;0.0000;-0.1920;
31.5660;0.9073;1.9719;0.9115;-0.2967;0.0000;-0.1920;
31.6260;0.9073;1.9719;0.9115;-0.2967;0.0000;-0.1920;
31.6340;0.9073;1.9719;0.9115;-0.2967;0.0000;-0.1920;
31.6340;0.9073;1.9719;0.9115;-0.3316;0.0000;1.3439;
31.6350;-0.2406;-0.7815;-2.3002;-0.3316;0.0000;1.3439;
31.6910;-0.2406;-0.7815;-2.3002;-0.3316;0.0000;1.3439;
31.6960;-0.2406;-0.7815;-2.3002;-0.3316;0.0000;1.3439;
31.6970;-0.2406;-0.7815;-2.3002;-0.2269;0.0524;2.3212;
31.6970;0.6337;-1.1861;-1.1093;-0.2269;0.0524;2.3212;
31.7570;0.6337;-1.1861;-1.1093;-0.2269;0.0524;2.3212;
31.7620;0.6337;-1.1861;-1.1093;-0.2269;0.0524;2.3212;
31.7630;0.6337;-1.1861;-1.1093;-0.0524;0.1396;2.4085;
31.7630;-1.2408;0.5428;-1.3542;-0.0524;0.1396;2.4085;
31.8240;-1.2408;0.5428;-1.3542;-0.0524;0.1396;2.4085;
31.8280;-1.2408;0.5428;-1.3542;-0.0524;0.1396;2.4085;
31.8290;-1.2408;0.5428;-1.3542;-0.1047;0.1745;0.5585;
31.8290;-5.8207;1.0781;10.9013;-0.1047;0.1745;0.5585;
31.8900;-5.8207;1.0781;10.9013;-0.1047;0.1745;0.5585;
31.8940;-5.8207;1.0781;10.9013;-0.1047;0.1745;0.5585;
31.8950;-5.8207;1.0781;10.9013;-0.2094;0.1745;-0.3665;
31.8960;-3.3383;-7.5201;-4.4499;-0.2094;0.1745;-0.3665;
31.9550;-3.3383;-7.5201;-4.4499;-0.2094;0.1745;-0.3665;
31.9600;-3.3383;-7.5201;-4.4499;-0.2094;0.1745;-0.3665;
31.9610;-3.3383;-7.5201;-4.4499;-0.1920;0.1047;-0.4014;
31.9610;4.1384;-7.1301;4.4270;-0.1920;0.1047;-0.4014;
32.0220;4.1384;-7.1301;4.4270;-0.1920;0.1047;-0.4014;
32.0260;4.1384;-7.1301;4.4270;-0.1920;0.1047;-0.4014;
32.0270;4.1384;-7.1301;4.4270;0.0000;0.0698;-0.4887;
32.0270;-0.3990;4.0773;-0.0652;0.0000;0.0698;-0.4887;
32.0880;-0.3990;4.0773;-0.0652;0.0000;0.0698;-0.4887;
32.0920;-0.3990;4.0773;-0.0652;0.0000;0.0698;-0.4887;
32.0930;-0.3990;4.0773;-0.0652;0.1920;0.0698;-1.7627;
32.0930;2.4809;2.7216;-1.8157;0.1920;0.0698;-1.7627;
32.1540;2.4809;2.7216;-1.8157;0.1920;0.0698;-1.7627;
32.1590;2.4809;2.7216;-1.8157;0.1920;0.0698;-1.7627;
32.1590;2.4809;2.7216;-1.8157;0.2792;0.0174;-4.2585;
32.1770;7.4709;2.8828;-2.8093;0.2792;0.0174;-4.2585;
32.2200;7.4709;2.8828;-2.8093;0.2792;0.0174;-4.2585;
32.2290;7.4709;2.8828;-2.8093;0.2792;0.0174;-4.2585;
32.2310;7.4709;2.8828;-2.8093;0.2269;-0.1396;-4.2585;
32.2320;4.0896;0.8076;0.5483;0.2269;-0.1396;-4.2585;
32.3230;4.0896;0.8076;0.5483;0.2269;-0.1396;-4.2585;
32.3250;4.0896;0.8076;0.5483;0.2269;-0.1396;-4.2585;
32.3270;4.0896;0.8076;0.5483;0.0524;-0.3490;-4.2585;
32.3310;-14.2762;-0.0458;2.7144;0.0524;-0.3490;-4.2585;
32.3520;-14.2762;-0.0458;2.7144;0.0524;-0.3490;-4.2585;
32.3570;-14.2762;-0.0458;2.7144;0.0524;-0.3490;-4.2585;
32.3580;-14.2762;-0.0458;2.7144;-0.1571;-0.5410;-0.7679;
32.3590;1.5629;1.6050;-1.9568;-0.1571;-0.5410;-0.7679;
32.4430;1.5629;1.6050;-1.9568;-0.1571;-0.5410;-0.7679;
32.4440;1.5629;1.6050;-1.9568;-0.2443;-0.6458;-0.7330;
32.4450;11.2527;-8.6159;0.6911;-0.2443;-0.6458;-0.7330;
32.4460;11.2527;-8.6159;0.6911;-0.2443;-0.6458;-0.7330;
32.4880;11.2527;-8.6159;0.6911;-0.2443;-0.6458;-0.7330;
32.4890;11.2527;-8.6159;0.6911;-0.2443;-0.6458;-0.7330;
32.4900;11.2527;-8.6159;0.6911;-0.1396;-0.5585;-0.4712;
32.4910;1.9013;7.0431;-4.2049;-0.1396;-0.5585;-0.4712;
32.5560;1.9013;7.0431;-4.2049;-0.1396;-0.5585;-0.4712;
32.5590;1.9013;7.0431;-4.2049;0.0698;-0.3665;-0.0524;
32.5600;-1.2223;-1.0179;-1.0731;0.0698;-0.3665;-0.0524;
32.5610;-1.2223;-1.0179;-1.0731;0.0698;-0.3665;-0.0524;
32.6160;-1.2223;-1.0179;-1.0731;0.0698;-0.3665;-0.0524;
32.6210;-1.2223;-1.0179;-1.0731;0.0698;-0.3665;-0.0524;
32.6220;-1.2223;-1.0179;-1.0731;0.0872;-0.1396;0.1047;
32.6230;-2.0962;1.6367;2.1354;0.0872;-0.1396;0.1047;
32.6920;-2.0962;1.6367;2.1354;0.0872;-0.1396;0.1047;
32.6930;-2.0962;1.6367;2.1354;0.0174;-0.0698;0.9075;
32.6940;0.9889;1.1339;2.6047;0.0174;-0.0698;0.9075;
32.7090;0.9889;1.1339;2.6047;0.0174;-0.0698;0.9075;
32.7480;0.9889;1.1339;2.6047;0.0174;-0.0698;0.9075;
32.7520;0.9889;1.1339;2.6047;0.0174;-0.0698;0.9075;
32.7530;0.9889;1.1339;2.6047;0.0349;-0.0872;2.3561;
32.7540;0.2339;0.1176;-0.8695;0.0349;-0.0872;2.3561;
32.8180;0.2339;0.1176;-0.8695;0.0349;-0.0872;2.3561;
32.8190;0.2339;0.1176;-0.8695;0.0349;-0.0872;2.3561;
32.8200;0.2339;0.1176;-0.8695;-0.0698;-0.0698;2.2689;
32.8210;-0.8030;-1.3808;-1.1116;-0.0698;-0.0698;2.2689;
32.8820;-0.8030;-1.3808;-1.1116;-0.0698;-0.0698;2.2689;
32.8850;-0.8030;-1.3808;-1.1116;-0.0698;-0.0698;2.2689;
32.8860;-0.8030;-1.3808;-1.1116;-0.0524;0.0174;1.3788;
32.8870;-2.4145;0.3853;-3.1328;-0.0524;0.0174;1.3788;
32.9460;-2.4145;0.3853;-3.1328;-0.0524;0.0174;1.3788;
32.9510;-2.4145;0.3853;-3.1328;-0.0524;0.0174;1.3788;
32.9530;-2.4145;0.3853;-3.1328;-0.1745;0.1571;-0.3141;
32.9540;-5.2785;-0.2274;0.5085;-0.1745;0.1571;-0.3141;
33.0120;-5.2785;-0.2274;0.5085;-0.1745;0.1571;-0.3141;
33.0170;-5.2785;-0.2274;0.5085;-0.1745;0.1571;-0.3141;
33.0180;-5.2785;-0.2274;0.5085;-0.1222;0.2269;-0.3141;
33.0190;-2.9574;-0.6992;0.0279;-0.1222;0.2269;-0.3141;
33.0780;-2.9574;-0.6992;0.0279;-0.1222;0.2269;-0.3141;
33.0830;-2.9574;-0.6992;0.0279;-0.1222;0.2269;-0.3141;
33.0850;-2.9574;-0.6992;0.0279;-0.1047;0.2094;-0.3490;
33.0860;0.0036;-9.0804;-2.8738;-0.1047;0.2094;-0.3490;
33.1440;0.0036;-9.0804;-2.8738;-0.1047;0.2094;-0.3490;
33.1490;0.0036;-9.0804;-2.8738;-0.1047;0.2094;-0.3490;
33.1500;0.0036;-9.0804;-2.8738;0.0174;0.1222;-0.5585;
33.1510;-0.6960;2.5616;1.0044;0.0174;0.1222;-0.5585;
33.2180;-0.6960;2.5616;1.0044;0.0174;0.1222;-0.5585;
33.3260;-0.6960;2.5616;1.0044;0.0174;0.1222;-0.5585;
33.3260;-0.6960;2.5616;1.0044;0.3141;0.1396;-5.0264;
33.3270;-0.6960;2.5616;1.0044;0.3141;0.1396;-5.0264;
33.3280;-0.6960;2.5616;1.0044;0.3141;0.1396;-5.0264;
33.3290;6.8719;4.0351;-3.0922;0.3141;0.1396;-5.0264;
33.3300;6.8719;4.0351;-3.0922;0.3141;0.1396;-5.0264;
33.3310;6.8719;4.0351;-3.0922;0.3141;0.1396;-5.0264;
33.3320;6.8719;4.0351;-3.0922;0.3141;0.1396;-5.0264;
33.3420;6.8719;4.0351;-3.0922;0.3141;0.1396;-5.0264;
33.3460;6.8719;4.0351;-3.0922;0.3141;0.1396;-5.0264;
33.3470;6.8719;4.0351;-3.0922;0.3141;0.1047;-5.0264;
33.3480;5.6016;3.3235;-2.8362;0.3141;0.1047;-5.0264;
33.4080;5.6016;3.3235;-2.8362;0.3141;0.1047;-5.0264;
33.4120;5.6016;3.3235;-2.8362;0.3141;0.1047;-5.0264;
33.4130;5.6016;3.3235;-2.8362;0.1571;0.0000;-4.9915;
33.4140;-12.8384;-4.3924;8.6256;0.1571;0.0000;-4.9915;
33.4740;-12.8384;-4.3924;8.6256;0.1571;0.0000;-4.9915;
33.4780;-12.8384;-4.3924;8.6256;0.1571;0.0000;-4.9915;
33.4790;-12.8384;-4.3924;8.6256;-0.0698;-0.1745;-1.9198;
33.4800;3.2971;1.8579;-4.2360;-0.0698;-0.1745;-1.9198;
33.5400;3.2971;1.8579;-4.2360;-0.0698;-0.1745;-1.9198;
33.5440;3.2971;1.8579;-4.2360;-0.0698;-0.1745;-1.9198;
33.5450;3.2971;1.8579;-4.2360;-0.0698;-0.2094;-0.6283;
33.5460;10.3545;-8.0147;4.3209;-0.0698;-0.2094;-0.6283;
33.6060;10.3545;-8.0147;4.3209;-0.0698;-0.2094;-0.6283;
33.6100;10.3545;-8.0147;4.3209;-0.0698;-0.2094;-0.6283;
33.6110;10.3545;-8.0147;4.3209;0.1571;-0.1920;-0.3665;
33.6120;5.1224;4.0911;-4.3740;0.1571;-0.1920;-0.3665;
33.6710;5.1224;4.0911;-4.3740;0.1571;-0.1920;-0.3665;
33.6760;5.1224;4.0911;-4.3740;0.1571;-0.1920;-0.3665;
33.6770;5.1224;4.0911;-4.3740;0.4712;-0.0872;0.0349;
33.6770;-0.2859;-0.5103;-1.7607;0.4712;-0.0872;0.0349;
33.7380;-0.2859;-0.5103;-1.7607;0.4712;-0.0872;0.0349;
33.7420;-0.2859;-0.5103;-1.7607;0.4712;-0.0872;0.0349;
33.7430;-0.2859;-0.5103;-1.7607;0.4014;0.0000;0.1222;
33.7430;-1.2239;1.9233;0.8190;0.4014;0.0000;0.1222;
33.8030;-1.2239;1.9233;0.8190;0.4014;0.0000;0.1222;
33.8080;-1.2239;1.9233;0.8190;0.4014;0.0000;0.1222;
33.8090;-1.2239;1.9233;0.8190;-0.0524;-0.0349;-0.2269;
33.8090;-0.6006;0.6952;1.3473;-0.0524;-0.0349;-0.2269;
33.8700;-0.6006;0.6952;1.3473;-0.0524;-0.0349;-0.2269;
33.8740;-0.6006;0.6952;1.3473;-0.0524;-0.0349;-0.2269;
33.8750;-0.6006;0.6952;1.3473;-0.4189;-0.0524;0.3316;
33.8760;0.3778;1.8315;0.0928;-0.4189;-0.0524;0.3316;
33.9350;0.3778;1.8315;0.0928;-0.4189;-0.0524;0.3316;
33.9400;0.3778;1.8315;0.0928;-0.4189;-0.0524;0.3316;
33.9410;0.3778;1.8315;0.0928;-0.4189;-0.0174;2.0943;
33.9410;0.5403;-0.7525;-1.2022;-0.4189;-0.0174;2.0943;
34.0020;0.5403;-0.7525;-1.2022;-0.4189;-0.0174;2.0943;
34.0070;0.5403;-0.7525;-1.2022;-0.4189;-0.0174;2.0943;
34.0080;0.5403;-0.7525;-1.2022;-0.2094;0.0349;2.2165;
34.0090;-0.5070;-1.0521;-1.6945;-0.2094;0.0349;2.2165;
34.0680;-0.5070;-1.0521;-1.6945;-0.2094;0.0349;2.2165;
34.0720;-0.5070;-1.0521;-1.6945;-0.2094;0.0349;2.2165;
34.0730;-0.5070;-1.0521;-1.6945;-0.0872;0.0524;1.3788;
34.0740;-2.2520;0.7157;-2.1195;-0.0872;0.0524;1.3788;
34.1360;-2.2520;0.7157;-2.1195;-0.0872;0.0524;1.3788;
34.1410;-2.2520;0.7157;-2.1195;-0.0872;0.0524;1.3788;
34.1430;-2.2520;0.7157;-2.1195;-0.0872;0.1222;-0.3141;
34.1590;-6.5266;0.7007;7.6763;-0.0872;0.1222;-0.3141;
34.2020;-6.5266;0.7007;7.6763;-0.0872;0.1222;-0.3141;
34.2070;-6.5266;0.7007;7.6763;-0.0872;0.1222;-0.3141;
34.2410;-6.5266;0.7007;7.6763;-0.0872;0.1396;-0.2967;
34.2420;-2.9405;-3.9819;-2.3844;-0.0872;0.1396;-0.2967;
34.2660;-2.9405;-3.9819;-2.3844;-0.0872;0.1396;-0.2967;
34.2710;-2.9405;-3.9819;-2.3844;-0.0872;0.1396;-0.2967;
34.2720;-2.9405;-3.9819;-2.3844;-0.0872;0.0872;-0.3141;
34.2760;2.8161;-7.6733;-1.0801;-0.0872;0.0872;-0.3141;
34.3320;2.8161;-7.6733;-1.0801;-0.0872;0.0872;-0.3141;
34.3510;2.8161;-7.6733;-1.0801;-0.0872;0.0872;-0.3141;
34.3530;2.8161;-7.6733;-1.0801;0.0000;0.0174;-0.4014;
34.3540;0.5859;2.6290;0.5746;0.0000;0.0174;-0.4014;
34.3980;0.5859;2.6290;0.5746;0.0000;0.0174;-0.4014;
34.4090;0.5859;2.6290;0.5746;0.0000;0.0174;-0.4014;
34.4100;0.5859;2.6290;0.5746;0.2094;0.0000;-1.2915;
34.4110;1.7981;2.1352;-3.2339;0.2094;0.0000;-1.2915;
34.4800;1.7981;2.1352;-3.2339;0.2094;0.0000;-1.2915;
34.4810;1.7981;2.1352;-3.2339;0.2094;0.0000;-1.2915;
34.4830;1.7981;2.1352;-3.2339;0.3840;-0.0174;-3.9443;
34.4910;6.7858;2.9352;-1.6439;0.3840;-0.0174;-3.9443;
34.5350;6.7858;2.9352;-1.6439;0.3840;-0.0174;-3.9443;
34.5360;6.7858;2.9352;-1.6439;0.3490;-0.1396;-3.9443;
34.5380;5.9107;2.8457;-2.7337;0.3490;-0.1396;-3.9443;
34.5390;5.9107;2.8457;-2.7337;0.3490;-0.1396;-3.9443;
34.6010;5.9107;2.8457;-2.7337;0.3490;-0.1396;-3.9443;
34.6200;5.9107;2.8457;-2.7337;0.3490;-0.1396;-3.9443;
34.6210;5.9107;2.8457;-2.7337;0.0524;-0.3840;-3.1938;
34.6230;-14.9221;0.5429;3.9985;0.0524;-0.3840;-3.1938;
34.6620;-14.9221;0.5429;3.9985;0.0524;-0.3840;-3.1938;
34.6670;-14.9221;0.5429;3.9985;0.0524;-0.3840;-3.1938;
34.6680;-14.9221;0.5429;3.9985;-0.2443;-0.5759;-0.7505;
34.6690;1.7545;3.6150;-2.3177;-0.2443;-0.5759;-0.7505;
34.7280;1.7545;3.6150;-2.3177;-0.2443;-0.5759;-0.7505;
34.7380;1.7545;3.6150;-2.3177;-0.2443;-0.5759;-0.7505;
34.7400;1.7545;3.6150;-2.3177;-0.2967;-0.6458;-0.7330;
34.7410;7.8525;-8.8568;4.5911;-0.2967;-0.6458;-0.7330;
34.7940;7.8525;-8.8568;4.5911;-0.2967;-0.6458;-0.7330;
34.7990;7.8525;-8.8568;4.5911;-0.2967;-0.6458;-0.7330;
34.8000;7.8525;-8.8568;4.5911;0.0349;-0.4712;-0.1571;
34.8010;3.5337;5.4738;-2.9882;0.0349;-0.4712;-0.1571;
34.8700;3.5337;5.4738;-2.9882;0.0349;-0.4712;-0.1571;
34.8810;3.5337;5.4738;-2.9882;0.2618;-0.2618;0.2094;
34.8830;-0.1230;0.4350;-2.3158;0.2618;-0.2618;0.2094;
34.8840;-0.1230;0.4350;-2.3158;0.2618;-0.2618;0.2094;
34.9270;-0.1230;0.4350;-2.3158;0.2618;-0.2618;0.2094;
34.9310;-0.1230;0.4350;-2.3158;0.2618;-0.2618;0.2094;
34.9320;-0.1230;0.4350;-2.3158;0.3141;-0.0524;0.4014;
34.9330;-3.2167;1.3546;1.4518;0.3141;-0.0524;0.4014;
34.9920;-3.2167;1.3546;1.4518;0.3141;-0.0524;0.4014;
34.9960;-3.2167;1.3546;1.4518;0.3141;-0.0524;0.4014;
34.9970;-3.2167;1.3546;1.4518;0.0174;-0.0349;0.3141;
34.9980;-0.6467;1.0766;0.6664;0.0174;-0.0349;0.3141;
35.0580;-0.6467;1.0766;0.6664;0.0174;-0.0349;0.3141;
35.0620;-0.6467;1.0766;0.6664;0.0174;-0.0349;0.3141;
35.0630;-0.6467;1.0766;0.6664;-0.0349;-0.1047;2.3736;
35.0640;0.4607;1.5844;-1.3346;-0.0349;-0.1047;2.3736;
35.1240;0.4607;1.5844;-1.3346;-0.0349;-0.1047;2.3736;
35.1280;0.4607;1.5844;-1.3346;-0.0349;-0.1047;2.3736;
35.1290;0.4607;1.5844;-1.3346;-0.0698;-0.0872;2.3736;
35.1300;0.1876;-0.8609;-2.1446;-0.0698;-0.0872;2.3736;
35.1900;0.1876;-0.8609;-2.1446;-0.0698;-0.0872;2.3736;
35.1950;0.1876;-0.8609;-2.1446;-0.0698;-0.0872;2.3736;
35.1950;0.1876;-0.8609;-2.1446;0.0000;0.0174;2.3736;
35.1960;-0.5513;-1.2693;-1.0618;0.0000;0.0174;2.3736;
35.2560;-0.5513;-1.2693;-1.0618;0.0000;0.0174;2.3736;
35.2600;-0.5513;-1.2693;-1.0618;0.0000;0.0174;2.3736;
35.2610;-0.5513;-1.2693;-1.0618;-0.1222;0.0872;0.5759;
35.2620;-3.2294;0.6374;-1.7002;-0.1222;0.0872;0.5759;
35.3220;-3.2294;0.6374;-1.7002;-0.1222;0.0872;0.5759;
35.3260;-3.2294;0.6374;-1.7002;-0.1222;0.0872;0.5759;
35.3280;-3.2294;0.6374;-1.7002;-0.1745;0.1920;-0.2967;
35.3290;-1.1485;-0.3206;3.6049;-0.1745;0.1920;-0.2967;
35.3880;-1.1485;-0.3206;3.6049;-0.1745;0.1920;-0.2967;
35.3920;-1.1485;-0.3206;3.6049;-0.1745;0.1920;-0.2967;
35.3930;-1.1485;-0.3206;3.6049;-0.1571;0.1920;-0.2618;
35.3940;-0.5585;-8.4165;-2.3884;-0.1571;0.1920;-0.2618;
35.4530;-0.5585;-8.4165;-2.3884;-0.1571;0.1920;-0.2618;
35.4580;-0.5585;-8.4165;-2.3884;-0.1571;0.1920;-0.2618;
35.4590;-0.5585;-8.4165;-2.3884;-0.0524;0.1920;-0.3141;
35.4630;1.9913;-1.1620;5.8737;-0.0524;0.1920;-0.3141;
35.5190;1.9913;-1.1620;5.8737;-0.0524;0.1920;-0.3141;
35.5240;1.9913;-1.1620;5.8737;-0.0524;0.1920;-0.3141;
35.5250;1.9913;-1.1620;5.8737;0.2094;0.2618;-0.3665;
35.5250;0.1689;0.5013;-0.3530;0.2094;0.2618;-0.3665;
35.5850;0.1689;0.5013;-0.3530;0.2094;0.2618;-0.3665;
35.5900;0.1689;0.5013;-0.3530;0.2094;0.2618;-0.3665;
35.5910;0.1689;0.5013;-0.3530;0.2269;0.2269;-4.0490;
35.5910;5.2872;2.6806;-2.0463;0.2269;0.2269;-4.0490;
35.6510;5.2872;2.6806;-2.0463;0.2269;0.2269;-4.0490;
35.6560;5.2872;2.6806;-2.0463;0.2269;0.2269;-4.0490;
35.6570;5.2872;2.6806;-2.0463;0.1920;0.0698;-4.0490;
35.6570;8.9491;4.0615;-4.6774;0.1920;0.0698;-4.0490;
35.7170;8.9491;4.0615;-4.6774;0.1920;0.0698;-4.0490;
35.7220;8.9491;4.0615;-4.6774;0.1920;0.0698;-4.0490;
35.7230;8.9491;4.0615;-4.6774;0.0349;-0.0872;-4.0665;
35.7230;-1.7088;-1.5054;13.7285;0.0349;-0.0872;-4.0665;
35.7840;-1.7088;-1.5054;13.7285;0.0349;-0.0872;-4.0665;
35.7880;-1.7088;-1.5054;13.7285;0.0349;-0.0872;-4.0665;
35.7890;-1.7088;-1.5054;13.7285;-0.0698;-0.2269;0.2967;
35.7890;-8.3551;3.1451;3.4981;-0.0698;-0.2269;0.2967;
35.8490;-8.3551;3.1451;3.4981;-0.0698;-0.2269;0.2967;
35.8540;-8.3551;3.1451;3.4981;-0.0698;-0.2269;0.2967;
35.8550;-8.3551;3.1451;3.4981;-0.1047;-0.1396;2.0071;
35.8550;2.2582;-8.3286;3.8126;-0.1047;-0.1396;2.0071;
35.9150;2.2582;-8.3286;3.8126;-0.1047;-0.1396;2.0071;
35.9200;2.2582;-8.3286;3.8126;-0.1047;-0.1396;2.0071;
35.9210;2.2582;-8.3286;3.8126;-0.1047;-0.0524;0.8726;
35.9210;5.5289;3.5889;-4.0871;-0.1047;-0.0524;0.8726;
35.9810;5.5289;3.5889;-4.0871;-0.1047;-0.0524;0.8726;
35.9860;5.5289;3.5889;-4.0871;-0.1047;-0.0524;0.8726;
35.9870;5.5289;3.5889;-4.0871;0.2269;0.2094;-0.1920;
35.9870;0.7233;-1.2995;-2.8512;0.2269;0.2094;-0.1920;
36.0470;0.7233;-1.2995;-2.8512;0.2269;0.2094;-0.1920;
36.0520;0.7233;-1.2995;-2.8512;0.2269;0.2094;-0.1920;
36.0530;0.7233;-1.2995;-2.8512;0.3316;0.2792;-1.6929;
36.0530;0.5498;0.8209;-1.6874;0.3316;0.2792;-1.6929;
36.1140;0.5498;0.8209;-1.6874;0.3316;0.2792;-1.6929;
36.1180;0.5498;0.8209;-1.6874;0.3316;0.2792;-1.6929;
36.1190;0.5498;0.8209;-1.6874;0.2967;0.2792;-0.4014;
36.1200;-0.3206;0.8508;1.4437;0.2967;0.2792;-0.4014;
36.1790;-0.3206;0.8508;1.4437;0.2967;0.2792;-0.4014;
36.1850;-0.3206;0.8508;1.4437;0.2967;0.2792;-0.4014;
36.1860;-0.3206;0.8508;1.4437;-0.0349;0.1745;0.3141;
36.1860;-0.4539;0.5016;-1.4279;-0.0349;0.1745;0.3141;
36.2460;-0.4539;0.5016;-1.4279;-0.0349;0.1745;0.3141;
36.2510;-0.4539;0.5016;-1.4279;-0.0349;0.1745;0.3141;
36.2520;-0.4539;0.5016;-1.4279;-0.2967;0.0524;2.6005;
36.2520;-0.7887;2.6230;-2.0775;-0.2967;0.0524;2.6005;
36.3120;-0.7887;2.6230;-2.0775;-0.2967;0.0524;2.6005;
36.3160;-0.7887;2.6230;-2.0775;-0.2967;0.0524;2.6005;
36.3170;-0.7887;2.6230;-2.0775;-0.3665;0.0524;2.6354;
36.3180;-0.4780;1.2746;1.0538;-0.3665;0.0524;2.6354;
36.3780;-0.4780;1.2746;1.0538;-0.3665;0.0524;2.6354;
36.3820;-0.4780;1.2746;1.0538;-0.3665;0.0524;2.6354;
36.3830;-0.4780;1.2746;1.0538;-0.2443;0.0174;2.6877;
36.3830;-2.0585;-0.7524;0.2941;-0.2443;0.0174;2.6877;
36.4430;-2.0585;-0.7524;0.2941;-0.2443;0.0174;2.6877;
36.4480;-2.0585;-0.7524;0.2941;-0.2443;0.0174;2.6877;
36.4490;-2.0585;-0.7524;0.2941;-0.2269;-0.0349;-0.2443;
36.4490;-0.7780;-0.8612;0.8692;-0.2269;-0.0349;-0.2443;
36.5090;-0.7780;-0.8612;0.8692;-0.2269;-0.0349;-0.2443;
36.5180;-0.7780;-0.8612;0.8692;-0.2269;-0.0349;-0.2443;
36.5190;-0.7780;-0.8612;0.8692;-0.1047;-0.1396;-0.4363;
36.5190;3.0587;-0.5563;-0.5706;-0.1047;-0.1396;-0.4363;
36.5760;3.0587;-0.5563;-0.5706;-0.1047;-0.1396;-0.4363;
36.5880;3.0587;-0.5563;-0.5706;-0.1047;-0.1396;-0.4363;
36.5880;3.0587;-0.5563;-0.5706;0.0000;-0.1396;-0.4538;
36.5890;-2.3592;1.7483;-1.2903;0.0000;-0.1396;-0.4538;
36.6460;-2.3592;1.7483;-1.2903;0.0000;-0.1396;-0.4538;
36.6470;-2.3592;1.7483;-1.2903;0.0000;-0.1396;-0.4538;
36.6480;-2.3592;1.7483;-1.2903;0.1047;-0.0698;-0.3141;
36.6490;-3.2673;2.2330;-0.2666;0.1047;-0.0698;-0.3141;
